"id_subj","group","n_trial","rt","acc","identity","pressed_key","link","block_order"
"CNTRL01","CTRL",1,NA,0,"go","","hsam_q1","self-first"
"CNTRL01","CTRL",2,0.533,1,"go","l","hsam_q1","self-first"
"CNTRL01","CTRL",3,0.436,1,"go","a","hsam_q1","self-first"
"CNTRL01","CTRL",4,0.384,1,"go","l","hsam_q1","self-first"
"CNTRL01","CTRL",5,0.617,1,"go","l","hsam_q1","self-first"
"CNTRL01","CTRL",6,NA,1,"no-go","","hsam_q1","self-first"
"CNTRL01","CTRL",7,0.477,1,"go","l","hsam_q1","self-first"
"CNTRL01","CTRL",8,0.462,1,"go","a","hsam_q1","self-first"
"CNTRL01","CTRL",9,0.426,1,"go","a","hsam_q1","self-first"
"CNTRL01","CTRL",10,NA,1,"no-go","","hsam_q1","self-first"
"CNTRL01","CTRL",11,0.452,1,"go","l","hsam_q1","self-first"
"CNTRL01","CTRL",12,0.451,1,"go","a","hsam_q1","self-first"
"CNTRL01","CTRL",13,NA,1,"no-go","","hsam_q1","self-first"
"CNTRL01","CTRL",14,NA,1,"no-go","","hsam_q1","self-first"
"CNTRL01","CTRL",15,0.465,1,"go","l","hsam_q1","self-first"
"CNTRL01","CTRL",16,0.409,1,"go","a","hsam_q1","self-first"
"CNTRL01","CTRL",17,NA,1,"no-go","","hsam_q1","self-first"
"CNTRL01","CTRL",18,0.509,1,"go","a","hsam_q1","self-first"
"CNTRL01","CTRL",19,NA,1,"no-go","","hsam_q1","self-first"
"CNTRL01","CTRL",20,NA,1,"no-go","","hsam_q1","self-first"
"CNTRL01","CTRL",21,NA,1,"no-go","","hsam_q1","self-first"
"CNTRL01","CTRL",22,NA,1,"no-go","","hsam_q1","self-first"
"CNTRL01","CTRL",23,NA,1,"no-go","","hsam_q1","self-first"
"CNTRL01","CTRL",24,NA,1,"no-go","","hsam_q1","self-first"
"CNTRL01","CTRL",25,NA,1,"no-go","","hsam_q1","self-first"
"CNTRL01","CTRL",26,0.451,1,"go","l","hsam_q1","self-first"
"CNTRL01","CTRL",27,NA,1,"no-go","","hsam_q1","self-first"
"CNTRL01","CTRL",28,0.591,1,"go","a","hsam_q1","self-first"
"CNTRL01","CTRL",29,NA,1,"no-go","","hsam_q1","self-first"
"CNTRL01","CTRL",30,NA,1,"no-go","","hsam_q1","self-first"
"CNTRL01","CTRL",31,NA,1,"no-go","","hsam_q1","self-first"
"CNTRL01","CTRL",32,0.467,1,"go","a","hsam_q1","self-first"
"CNTRL01","CTRL",33,0.309,1,"go","l","hsam_q1","self-first"
"CNTRL01","CTRL",34,0.45,1,"go","a","hsam_q1","self-first"
"CNTRL01","CTRL",35,NA,1,"no-go","","hsam_q1","self-first"
"CNTRL01","CTRL",36,0.499,1,"go","a","hsam_q1","self-first"
"CNTRL01","CTRL",37,0.418,1,"go","l","hsam_q1","self-first"
"CNTRL01","CTRL",38,NA,1,"no-go","","hsam_q1","self-first"
"CNTRL01","CTRL",39,0.385,1,"go","a","hsam_q1","self-first"
"CNTRL01","CTRL",40,0.602,1,"go","l","hsam_q1","self-first"
"CNTRL01","CTRL",41,NA,1,"no-go","","hsam_q1","self-first"
"CNTRL01","CTRL",42,NA,1,"no-go","","hsam_q1","self-first"
"CNTRL01","CTRL",43,0.366,1,"go","l","hsam_q1","self-first"
"CNTRL01","CTRL",44,NA,1,"no-go","","hsam_q1","self-first"
"CNTRL01","CTRL",45,NA,1,"no-go","","hsam_q1","self-first"
"CNTRL01","CTRL",46,NA,1,"no-go","","hsam_q1","self-first"
"CNTRL01","CTRL",47,NA,1,"no-go","","hsam_q1","self-first"
"CNTRL01","CTRL",48,NA,1,"no-go","","hsam_q1","self-first"
"CNTRL01","CTRL",49,NA,1,"no-go","","hsam_q1","self-first"
"CNTRL01","CTRL",50,0.457,1,"go","a","hsam_q1","self-first"
"CNTRL01","CTRL",51,NA,1,"no-go","","hsam_q1","self-first"
"CNTRL01","CTRL",52,0.474,1,"go","l","hsam_q1","self-first"
"CNTRL01","CTRL",53,NA,1,"no-go","","hsam_q1","self-first"
"CNTRL01","CTRL",54,NA,1,"no-go","","hsam_q1","self-first"
"CNTRL01","CTRL",55,NA,1,"no-go","","hsam_q1","self-first"
"CNTRL01","CTRL",56,0.517,1,"go","a","hsam_q1","self-first"
"CNTRL01","CTRL",57,0.375,1,"go","a","hsam_q1","self-first"
"CNTRL01","CTRL",58,0.408,1,"go","l","hsam_q1","self-first"
"CNTRL01","CTRL",59,0.368,1,"go","a","hsam_q1","self-first"
"CNTRL01","CTRL",60,0.369,1,"go","l","hsam_q1","self-first"
"CNTRL01","CTRL",61,NA,1,"no-go","","hsam_q1","self-first"
"CNTRL01","CTRL",62,0.385,1,"go","l","hsam_q1","self-first"
"CNTRL01","CTRL",63,0.377,1,"go","l","hsam_q1","self-first"
"CNTRL01","CTRL",64,NA,1,"no-go","","hsam_q1","self-first"
"CNTRL01","CTRL",65,0.433,1,"go","l","hsam_q1","self-first"
"CNTRL01","CTRL",66,0.403,1,"go","a","hsam_q1","self-first"
"CNTRL01","CTRL",67,NA,1,"no-go","","hsam_q1","self-first"
"CNTRL01","CTRL",68,NA,1,"no-go","","hsam_q1","self-first"
"CNTRL01","CTRL",69,NA,1,"no-go","","hsam_q1","self-first"
"CNTRL01","CTRL",70,NA,1,"no-go","","hsam_q1","self-first"
"CNTRL01","CTRL",71,NA,1,"no-go","","hsam_q1","self-first"
"CNTRL01","CTRL",72,0.425,1,"go","a","hsam_q1","self-first"
"CNTRL01","CTRL",73,0.326,1,"go","a","hsam_q1","self-first"
"CNTRL01","CTRL",74,0.318,1,"go","l","hsam_q1","self-first"
"CNTRL01","CTRL",75,NA,1,"no-go","","hsam_q1","self-first"
"CNTRL01","CTRL",76,NA,1,"no-go","","hsam_q1","self-first"
"CNTRL01","CTRL",77,0.526,1,"go","a","hsam_q1","self-first"
"CNTRL01","CTRL",78,NA,1,"no-go","","hsam_q1","self-first"
"CNTRL01","CTRL",79,NA,1,"no-go","","hsam_q1","self-first"
"CNTRL01","CTRL",80,0.386,1,"go","a","hsam_q1","self-first"
"CNTRL01","CTRL",81,0.491,1,"go","a","hsam_q1","self-first"
"CNTRL01","CTRL",82,0.394,1,"go","a","hsam_q1","self-first"
"CNTRL01","CTRL",83,0.401,1,"go","a","hsam_q1","self-first"
"CNTRL01","CTRL",84,NA,1,"no-go","","hsam_q1","self-first"
"CNTRL01","CTRL",85,NA,1,"no-go","","hsam_q1","self-first"
"CNTRL01","CTRL",86,NA,1,"no-go","","hsam_q1","self-first"
"CNTRL01","CTRL",87,NA,1,"no-go","","hsam_q1","self-first"
"CNTRL01","CTRL",88,0.418,1,"go","l","hsam_q1","self-first"
"CNTRL01","CTRL",89,0.373,1,"go","a","hsam_q1","self-first"
"CNTRL01","CTRL",90,0.293,1,"go","l","hsam_q1","self-first"
"CNTRL01","CTRL",91,0.335,1,"go","l","hsam_q1","self-first"
"CNTRL01","CTRL",92,NA,1,"no-go","","hsam_q1","self-first"
"CNTRL01","CTRL",93,0.376,1,"go","l","hsam_q1","self-first"
"CNTRL01","CTRL",94,0.31,1,"go","l","hsam_q1","self-first"
"CNTRL01","CTRL",95,0.391,1,"go","l","hsam_q1","self-first"
"CNTRL01","CTRL",96,NA,1,"no-go","","hsam_q1","self-first"
"CNTRL01","CTRL",97,NA,1,"no-go","","hsam_q1","self-first"
"CNTRL01","CTRL",98,0.323,1,"go","l","hsam_q1","self-first"
"CNTRL01","CTRL",99,NA,1,"no-go","","hsam_q1","self-first"
"CNTRL01","CTRL",100,NA,1,"no-go","","hsam_q1","self-first"
"CNTRL01","CTRL",101,0.643,1,"go","a","hsam_q1","other-first"
"CNTRL01","CTRL",102,NA,1,"no-go","","hsam_q1","other-first"
"CNTRL01","CTRL",103,0.39,1,"go","l","hsam_q1","other-first"
"CNTRL01","CTRL",104,0.368,1,"go","l","hsam_q1","other-first"
"CNTRL01","CTRL",105,0.35,1,"go","a","hsam_q1","other-first"
"CNTRL01","CTRL",106,0.359,1,"go","l","hsam_q1","other-first"
"CNTRL01","CTRL",107,0.568,1,"go","l","hsam_q1","other-first"
"CNTRL01","CTRL",108,0.41,1,"go","l","hsam_q1","other-first"
"CNTRL01","CTRL",109,0.334,1,"go","l","hsam_q1","other-first"
"CNTRL01","CTRL",110,NA,1,"no-go","","hsam_q1","other-first"
"CNTRL01","CTRL",111,NA,1,"no-go","","hsam_q1","other-first"
"CNTRL01","CTRL",112,NA,1,"no-go","","hsam_q1","other-first"
"CNTRL01","CTRL",113,NA,1,"no-go","","hsam_q1","other-first"
"CNTRL01","CTRL",114,0.427,1,"go","l","hsam_q1","other-first"
"CNTRL01","CTRL",115,0.309,1,"go","l","hsam_q1","other-first"
"CNTRL01","CTRL",116,0.467,0,"no-go","l","hsam_q1","other-first"
"CNTRL01","CTRL",117,NA,1,"no-go","","hsam_q1","other-first"
"CNTRL01","CTRL",118,0.5,1,"go","a","hsam_q1","other-first"
"CNTRL01","CTRL",119,NA,1,"no-go","","hsam_q1","other-first"
"CNTRL01","CTRL",120,0.366,1,"go","l","hsam_q1","other-first"
"CNTRL01","CTRL",121,NA,1,"no-go","","hsam_q1","other-first"
"CNTRL01","CTRL",122,NA,1,"no-go","","hsam_q1","other-first"
"CNTRL01","CTRL",123,NA,1,"no-go","","hsam_q1","other-first"
"CNTRL01","CTRL",124,0.443,1,"go","a","hsam_q1","other-first"
"CNTRL01","CTRL",125,0.41,1,"go","l","hsam_q1","other-first"
"CNTRL01","CTRL",126,NA,1,"no-go","","hsam_q1","other-first"
"CNTRL01","CTRL",127,0.359,1,"go","l","hsam_q1","other-first"
"CNTRL01","CTRL",128,NA,1,"no-go","","hsam_q1","other-first"
"CNTRL01","CTRL",129,NA,1,"no-go","","hsam_q1","other-first"
"CNTRL01","CTRL",130,0.417,1,"go","a","hsam_q1","other-first"
"CNTRL01","CTRL",131,NA,1,"no-go","","hsam_q1","other-first"
"CNTRL01","CTRL",132,0.517,1,"go","l","hsam_q1","other-first"
"CNTRL01","CTRL",133,0.403,1,"go","a","hsam_q1","other-first"
"CNTRL01","CTRL",134,0.603,1,"go","a","hsam_q1","other-first"
"CNTRL01","CTRL",135,NA,1,"no-go","","hsam_q1","other-first"
"CNTRL01","CTRL",136,0.416,1,"go","a","hsam_q1","other-first"
"CNTRL01","CTRL",137,NA,1,"no-go","","hsam_q1","other-first"
"CNTRL01","CTRL",138,0.376,1,"go","a","hsam_q1","other-first"
"CNTRL01","CTRL",139,NA,1,"no-go","","hsam_q1","other-first"
"CNTRL01","CTRL",140,NA,1,"no-go","","hsam_q1","other-first"
"CNTRL01","CTRL",141,NA,1,"no-go","","hsam_q1","other-first"
"CNTRL01","CTRL",142,0.485,1,"go","l","hsam_q1","other-first"
"CNTRL01","CTRL",143,NA,1,"no-go","","hsam_q1","other-first"
"CNTRL01","CTRL",144,0.525,1,"go","a","hsam_q1","other-first"
"CNTRL01","CTRL",145,NA,1,"no-go","","hsam_q1","other-first"
"CNTRL01","CTRL",146,NA,1,"no-go","","hsam_q1","other-first"
"CNTRL01","CTRL",147,0.408,1,"go","a","hsam_q1","other-first"
"CNTRL01","CTRL",148,NA,1,"no-go","","hsam_q1","other-first"
"CNTRL01","CTRL",149,NA,1,"no-go","","hsam_q1","other-first"
"CNTRL01","CTRL",150,0.406,1,"go","a","hsam_q1","other-first"
"CNTRL01","CTRL",151,0.375,1,"go","a","hsam_q1","other-first"
"CNTRL01","CTRL",152,NA,1,"no-go","","hsam_q1","other-first"
"CNTRL01","CTRL",153,0.359,1,"go","a","hsam_q1","other-first"
"CNTRL01","CTRL",154,0.41,1,"go","l","hsam_q1","other-first"
"CNTRL01","CTRL",155,NA,1,"no-go","","hsam_q1","other-first"
"CNTRL01","CTRL",156,0.385,1,"go","a","hsam_q1","other-first"
"CNTRL01","CTRL",157,0.376,1,"go","l","hsam_q1","other-first"
"CNTRL01","CTRL",158,0.308,1,"go","l","hsam_q1","other-first"
"CNTRL01","CTRL",159,0.365,1,"go","a","hsam_q1","other-first"
"CNTRL01","CTRL",160,0.377,1,"go","l","hsam_q1","other-first"
"CNTRL01","CTRL",161,NA,1,"no-go","","hsam_q1","other-first"
"CNTRL01","CTRL",162,0.691,1,"go","a","hsam_q1","other-first"
"CNTRL01","CTRL",163,0.409,1,"go","l","hsam_q1","other-first"
"CNTRL01","CTRL",164,0.389,1,"go","a","hsam_q1","other-first"
"CNTRL01","CTRL",165,NA,1,"no-go","","hsam_q1","other-first"
"CNTRL01","CTRL",166,0.391,1,"go","l","hsam_q1","other-first"
"CNTRL01","CTRL",167,NA,1,"no-go","","hsam_q1","other-first"
"CNTRL01","CTRL",168,NA,1,"no-go","","hsam_q1","other-first"
"CNTRL01","CTRL",169,0.307,1,"go","a","hsam_q1","other-first"
"CNTRL01","CTRL",170,NA,1,"no-go","","hsam_q1","other-first"
"CNTRL01","CTRL",171,NA,1,"no-go","","hsam_q1","other-first"
"CNTRL01","CTRL",172,0.4,1,"go","l","hsam_q1","other-first"
"CNTRL01","CTRL",173,NA,1,"no-go","","hsam_q1","other-first"
"CNTRL01","CTRL",174,0.368,1,"go","l","hsam_q1","other-first"
"CNTRL01","CTRL",175,0.295,1,"go","a","hsam_q1","other-first"
"CNTRL01","CTRL",176,0.551,1,"go","a","hsam_q1","other-first"
"CNTRL01","CTRL",177,NA,1,"no-go","","hsam_q1","other-first"
"CNTRL01","CTRL",178,NA,1,"no-go","","hsam_q1","other-first"
"CNTRL01","CTRL",179,0.45,1,"go","l","hsam_q1","other-first"
"CNTRL01","CTRL",180,NA,1,"no-go","","hsam_q1","other-first"
"CNTRL01","CTRL",181,NA,1,"no-go","","hsam_q1","other-first"
"CNTRL01","CTRL",182,NA,1,"no-go","","hsam_q1","other-first"
"CNTRL01","CTRL",183,NA,1,"no-go","","hsam_q1","other-first"
"CNTRL01","CTRL",184,NA,1,"no-go","","hsam_q1","other-first"
"CNTRL01","CTRL",185,NA,1,"no-go","","hsam_q1","other-first"
"CNTRL01","CTRL",186,NA,1,"no-go","","hsam_q1","other-first"
"CNTRL01","CTRL",187,NA,1,"no-go","","hsam_q1","other-first"
"CNTRL01","CTRL",188,NA,1,"no-go","","hsam_q1","other-first"
"CNTRL01","CTRL",189,0.409,1,"go","a","hsam_q1","other-first"
"CNTRL01","CTRL",190,0.326,1,"go","a","hsam_q1","other-first"
"CNTRL01","CTRL",191,NA,1,"no-go","","hsam_q1","other-first"
"CNTRL01","CTRL",192,NA,1,"no-go","","hsam_q1","other-first"
"CNTRL01","CTRL",193,0.543,1,"go","l","hsam_q1","other-first"
"CNTRL01","CTRL",194,0.426,1,"go","l","hsam_q1","other-first"
"CNTRL01","CTRL",195,0.333,1,"go","a","hsam_q1","other-first"
"CNTRL01","CTRL",196,NA,1,"no-go","","hsam_q1","other-first"
"CNTRL01","CTRL",197,NA,1,"no-go","","hsam_q1","other-first"
"CNTRL01","CTRL",198,NA,1,"no-go","","hsam_q1","other-first"
"CNTRL01","CTRL",199,0.409,1,"go","l","hsam_q1","other-first"
"CNTRL01","CTRL",200,0.384,1,"go","a","hsam_q1","other-first"
"CNTRL02","CTRL",1,0.6405,1,"go","l","hsam_t1","self-first"
"CNTRL02","CTRL",2,0.879,1,"go","l","hsam_t1","self-first"
"CNTRL02","CTRL",3,NA,1,"no-go","","hsam_t1","self-first"
"CNTRL02","CTRL",4,NA,1,"no-go","","hsam_t1","self-first"
"CNTRL02","CTRL",5,NA,1,"no-go","","hsam_t1","self-first"
"CNTRL02","CTRL",6,NA,1,"no-go","","hsam_t1","self-first"
"CNTRL02","CTRL",7,NA,1,"no-go","","hsam_t1","self-first"
"CNTRL02","CTRL",8,0.5953,1,"go","l","hsam_t1","self-first"
"CNTRL02","CTRL",9,NA,1,"no-go","","hsam_t1","self-first"
"CNTRL02","CTRL",10,0.4593,1,"go","a","hsam_t1","self-first"
"CNTRL02","CTRL",11,0.4745,1,"go","a","hsam_t1","self-first"
"CNTRL02","CTRL",12,0.4721,1,"go","a","hsam_t1","self-first"
"CNTRL02","CTRL",13,0.4889,1,"go","a","hsam_t1","self-first"
"CNTRL02","CTRL",14,NA,1,"no-go","","hsam_t1","self-first"
"CNTRL02","CTRL",15,0.5615,1,"go","l","hsam_t1","self-first"
"CNTRL02","CTRL",16,NA,1,"no-go","","hsam_t1","self-first"
"CNTRL02","CTRL",17,0.6372,1,"go","a","hsam_t1","self-first"
"CNTRL02","CTRL",18,0.7285,1,"go","l","hsam_t1","self-first"
"CNTRL02","CTRL",19,NA,1,"no-go","","hsam_t1","self-first"
"CNTRL02","CTRL",20,NA,1,"no-go","","hsam_t1","self-first"
"CNTRL02","CTRL",21,NA,1,"no-go","","hsam_t1","self-first"
"CNTRL02","CTRL",22,NA,1,"no-go","","hsam_t1","self-first"
"CNTRL02","CTRL",23,0.5128,1,"go","l","hsam_t1","self-first"
"CNTRL02","CTRL",24,0.5015,1,"go","a","hsam_t1","self-first"
"CNTRL02","CTRL",25,0.388,1,"go","l","hsam_t1","self-first"
"CNTRL02","CTRL",26,0.4932,1,"go","l","hsam_t1","self-first"
"CNTRL02","CTRL",27,NA,1,"no-go","","hsam_t1","self-first"
"CNTRL02","CTRL",28,0.4504,1,"go","a","hsam_t1","self-first"
"CNTRL02","CTRL",29,NA,1,"no-go","","hsam_t1","self-first"
"CNTRL02","CTRL",30,0.5272,1,"go","l","hsam_t1","self-first"
"CNTRL02","CTRL",31,0.4282,1,"go","l","hsam_t1","self-first"
"CNTRL02","CTRL",32,0.5256,1,"go","l","hsam_t1","self-first"
"CNTRL02","CTRL",33,0.5045,1,"go","a","hsam_t1","self-first"
"CNTRL02","CTRL",34,0.573,1,"go","l","hsam_t1","self-first"
"CNTRL02","CTRL",35,NA,1,"no-go","","hsam_t1","self-first"
"CNTRL02","CTRL",36,0.507,1,"go","a","hsam_t1","self-first"
"CNTRL02","CTRL",37,NA,1,"no-go","","hsam_t1","self-first"
"CNTRL02","CTRL",38,NA,1,"no-go","","hsam_t1","self-first"
"CNTRL02","CTRL",39,NA,1,"no-go","","hsam_t1","self-first"
"CNTRL02","CTRL",40,NA,1,"no-go","","hsam_t1","self-first"
"CNTRL02","CTRL",41,NA,1,"no-go","","hsam_t1","self-first"
"CNTRL02","CTRL",42,0.4671,1,"go","l","hsam_t1","self-first"
"CNTRL02","CTRL",43,NA,1,"no-go","","hsam_t1","self-first"
"CNTRL02","CTRL",44,0.474,1,"go","a","hsam_t1","self-first"
"CNTRL02","CTRL",45,0.4059,1,"go","l","hsam_t1","self-first"
"CNTRL02","CTRL",46,0.4074,1,"go","a","hsam_t1","self-first"
"CNTRL02","CTRL",47,NA,1,"no-go","","hsam_t1","self-first"
"CNTRL02","CTRL",48,NA,1,"no-go","","hsam_t1","self-first"
"CNTRL02","CTRL",49,0.7535,1,"go","l","hsam_t1","self-first"
"CNTRL02","CTRL",50,0.681,1,"go","l","hsam_t1","self-first"
"CNTRL02","CTRL",51,NA,1,"no-go","","hsam_t1","self-first"
"CNTRL02","CTRL",52,0.4694,1,"go","l","hsam_t1","self-first"
"CNTRL02","CTRL",53,0.437,1,"go","a","hsam_t1","self-first"
"CNTRL02","CTRL",54,0.4082,1,"go","a","hsam_t1","self-first"
"CNTRL02","CTRL",55,NA,1,"no-go","","hsam_t1","self-first"
"CNTRL02","CTRL",56,NA,1,"no-go","","hsam_t1","self-first"
"CNTRL02","CTRL",57,0.5066,1,"go","l","hsam_t1","self-first"
"CNTRL02","CTRL",58,0.4677,1,"go","l","hsam_t1","self-first"
"CNTRL02","CTRL",59,0.5192,1,"go","a","hsam_t1","self-first"
"CNTRL02","CTRL",60,NA,1,"no-go","","hsam_t1","self-first"
"CNTRL02","CTRL",61,0.5415,1,"go","a","hsam_t1","self-first"
"CNTRL02","CTRL",62,NA,1,"no-go","","hsam_t1","self-first"
"CNTRL02","CTRL",63,NA,1,"no-go","","hsam_t1","self-first"
"CNTRL02","CTRL",64,NA,1,"no-go","","hsam_t1","self-first"
"CNTRL02","CTRL",65,NA,1,"no-go","","hsam_t1","self-first"
"CNTRL02","CTRL",66,NA,1,"no-go","","hsam_t1","self-first"
"CNTRL02","CTRL",67,NA,1,"no-go","","hsam_t1","self-first"
"CNTRL02","CTRL",68,NA,1,"no-go","","hsam_t1","self-first"
"CNTRL02","CTRL",69,NA,1,"no-go","","hsam_t1","self-first"
"CNTRL02","CTRL",70,0.5693,1,"go","l","hsam_t1","self-first"
"CNTRL02","CTRL",71,NA,1,"no-go","","hsam_t1","self-first"
"CNTRL02","CTRL",72,0.4932,1,"go","a","hsam_t1","self-first"
"CNTRL02","CTRL",73,NA,1,"no-go","","hsam_t1","self-first"
"CNTRL02","CTRL",74,0.4191,1,"go","a","hsam_t1","self-first"
"CNTRL02","CTRL",75,0.4744,1,"go","l","hsam_t1","self-first"
"CNTRL02","CTRL",76,NA,1,"no-go","","hsam_t1","self-first"
"CNTRL02","CTRL",77,NA,1,"no-go","","hsam_t1","self-first"
"CNTRL02","CTRL",78,0.6751,1,"go","l","hsam_t1","self-first"
"CNTRL02","CTRL",79,0.519,1,"go","a","hsam_t1","self-first"
"CNTRL02","CTRL",80,NA,1,"no-go","","hsam_t1","self-first"
"CNTRL02","CTRL",81,NA,1,"no-go","","hsam_t1","self-first"
"CNTRL02","CTRL",82,NA,1,"no-go","","hsam_t1","self-first"
"CNTRL02","CTRL",83,0.5203,1,"go","l","hsam_t1","self-first"
"CNTRL02","CTRL",84,0.5006,1,"go","l","hsam_t1","self-first"
"CNTRL02","CTRL",85,0.553,1,"go","a","hsam_t1","self-first"
"CNTRL02","CTRL",86,0.4728,1,"go","a","hsam_t1","self-first"
"CNTRL02","CTRL",87,0.4981,1,"go","a","hsam_t1","self-first"
"CNTRL02","CTRL",88,0.6745,1,"go","a","hsam_t1","self-first"
"CNTRL02","CTRL",89,NA,1,"no-go","","hsam_t1","self-first"
"CNTRL02","CTRL",90,NA,1,"no-go","","hsam_t1","self-first"
"CNTRL02","CTRL",91,0.5278,1,"go","a","hsam_t1","self-first"
"CNTRL02","CTRL",92,NA,1,"no-go","","hsam_t1","self-first"
"CNTRL02","CTRL",93,0.5361,1,"go","l","hsam_t1","self-first"
"CNTRL02","CTRL",94,NA,1,"no-go","","hsam_t1","self-first"
"CNTRL02","CTRL",95,NA,1,"no-go","","hsam_t1","self-first"
"CNTRL02","CTRL",96,NA,1,"no-go","","hsam_t1","self-first"
"CNTRL02","CTRL",97,NA,1,"no-go","","hsam_t1","self-first"
"CNTRL02","CTRL",98,0.5814,1,"go","a","hsam_t1","self-first"
"CNTRL02","CTRL",99,0.5555,1,"go","a","hsam_t1","self-first"
"CNTRL02","CTRL",100,NA,1,"no-go","","hsam_t1","self-first"
"CNTRL02","CTRL",101,NA,1,"no-go","","hsam_t1","other-first"
"CNTRL02","CTRL",102,NA,1,"no-go","","hsam_t1","other-first"
"CNTRL02","CTRL",103,0.5413,1,"go","a","hsam_t1","other-first"
"CNTRL02","CTRL",104,NA,1,"no-go","","hsam_t1","other-first"
"CNTRL02","CTRL",105,0.7021,1,"go","l","hsam_t1","other-first"
"CNTRL02","CTRL",106,0.7177,1,"go","l","hsam_t1","other-first"
"CNTRL02","CTRL",107,0.5191,1,"go","a","hsam_t1","other-first"
"CNTRL02","CTRL",108,0.5014,1,"go","l","hsam_t1","other-first"
"CNTRL02","CTRL",109,0.4343,1,"go","l","hsam_t1","other-first"
"CNTRL02","CTRL",110,0.4167,1,"go","a","hsam_t1","other-first"
"CNTRL02","CTRL",111,0.446,1,"go","l","hsam_t1","other-first"
"CNTRL02","CTRL",112,NA,1,"no-go","","hsam_t1","other-first"
"CNTRL02","CTRL",113,0.479,1,"go","a","hsam_t1","other-first"
"CNTRL02","CTRL",114,NA,1,"no-go","","hsam_t1","other-first"
"CNTRL02","CTRL",115,0.5037,1,"go","a","hsam_t1","other-first"
"CNTRL02","CTRL",116,NA,1,"no-go","","hsam_t1","other-first"
"CNTRL02","CTRL",117,NA,1,"no-go","","hsam_t1","other-first"
"CNTRL02","CTRL",118,NA,1,"no-go","","hsam_t1","other-first"
"CNTRL02","CTRL",119,NA,1,"no-go","","hsam_t1","other-first"
"CNTRL02","CTRL",120,NA,1,"no-go","","hsam_t1","other-first"
"CNTRL02","CTRL",121,0.5782,1,"go","a","hsam_t1","other-first"
"CNTRL02","CTRL",122,NA,1,"no-go","","hsam_t1","other-first"
"CNTRL02","CTRL",123,0.5189,1,"go","a","hsam_t1","other-first"
"CNTRL02","CTRL",124,NA,1,"no-go","","hsam_t1","other-first"
"CNTRL02","CTRL",125,0.6492,1,"go","l","hsam_t1","other-first"
"CNTRL02","CTRL",126,NA,1,"no-go","","hsam_t1","other-first"
"CNTRL02","CTRL",127,NA,1,"no-go","","hsam_t1","other-first"
"CNTRL02","CTRL",128,NA,1,"no-go","","hsam_t1","other-first"
"CNTRL02","CTRL",129,0.6201,1,"go","l","hsam_t1","other-first"
"CNTRL02","CTRL",130,0.4681,1,"go","a","hsam_t1","other-first"
"CNTRL02","CTRL",131,0.5169,1,"go","l","hsam_t1","other-first"
"CNTRL02","CTRL",132,NA,1,"no-go","","hsam_t1","other-first"
"CNTRL02","CTRL",133,0.5463,1,"go","l","hsam_t1","other-first"
"CNTRL02","CTRL",134,NA,1,"no-go","","hsam_t1","other-first"
"CNTRL02","CTRL",135,0.538,1,"go","l","hsam_t1","other-first"
"CNTRL02","CTRL",136,NA,1,"no-go","","hsam_t1","other-first"
"CNTRL02","CTRL",137,NA,1,"no-go","","hsam_t1","other-first"
"CNTRL02","CTRL",138,0.6219,1,"go","l","hsam_t1","other-first"
"CNTRL02","CTRL",139,0.4913,1,"go","l","hsam_t1","other-first"
"CNTRL02","CTRL",140,NA,1,"no-go","","hsam_t1","other-first"
"CNTRL02","CTRL",141,0.5373,1,"go","l","hsam_t1","other-first"
"CNTRL02","CTRL",142,0.5042,1,"go","l","hsam_t1","other-first"
"CNTRL02","CTRL",143,0.4937,1,"go","l","hsam_t1","other-first"
"CNTRL02","CTRL",144,NA,1,"no-go","","hsam_t1","other-first"
"CNTRL02","CTRL",145,0.6035,1,"go","a","hsam_t1","other-first"
"CNTRL02","CTRL",146,NA,1,"no-go","","hsam_t1","other-first"
"CNTRL02","CTRL",147,0.6626,1,"go","a","hsam_t1","other-first"
"CNTRL02","CTRL",148,NA,1,"no-go","","hsam_t1","other-first"
"CNTRL02","CTRL",149,NA,1,"no-go","","hsam_t1","other-first"
"CNTRL02","CTRL",150,0.4933,1,"go","a","hsam_t1","other-first"
"CNTRL02","CTRL",151,NA,1,"no-go","","hsam_t1","other-first"
"CNTRL02","CTRL",152,NA,1,"no-go","","hsam_t1","other-first"
"CNTRL02","CTRL",153,NA,1,"no-go","","hsam_t1","other-first"
"CNTRL02","CTRL",154,NA,1,"no-go","","hsam_t1","other-first"
"CNTRL02","CTRL",155,0.4738,1,"go","a","hsam_t1","other-first"
"CNTRL02","CTRL",156,0.6838,1,"go","l","hsam_t1","other-first"
"CNTRL02","CTRL",157,0.4836,1,"go","l","hsam_t1","other-first"
"CNTRL02","CTRL",158,0.4509,1,"go","l","hsam_t1","other-first"
"CNTRL02","CTRL",159,NA,1,"no-go","","hsam_t1","other-first"
"CNTRL02","CTRL",160,NA,1,"no-go","","hsam_t1","other-first"
"CNTRL02","CTRL",161,0.4943,1,"go","a","hsam_t1","other-first"
"CNTRL02","CTRL",162,0.4335,1,"go","a","hsam_t1","other-first"
"CNTRL02","CTRL",163,NA,1,"no-go","","hsam_t1","other-first"
"CNTRL02","CTRL",164,NA,1,"no-go","","hsam_t1","other-first"
"CNTRL02","CTRL",165,NA,1,"no-go","","hsam_t1","other-first"
"CNTRL02","CTRL",166,NA,1,"no-go","","hsam_t1","other-first"
"CNTRL02","CTRL",167,NA,1,"no-go","","hsam_t1","other-first"
"CNTRL02","CTRL",168,0.4784,1,"go","a","hsam_t1","other-first"
"CNTRL02","CTRL",169,NA,1,"no-go","","hsam_t1","other-first"
"CNTRL02","CTRL",170,0.4272,1,"go","l","hsam_t1","other-first"
"CNTRL02","CTRL",171,0.415,1,"go","a","hsam_t1","other-first"
"CNTRL02","CTRL",172,0.3106,1,"go","a","hsam_t1","other-first"
"CNTRL02","CTRL",173,0.4139,1,"go","l","hsam_t1","other-first"
"CNTRL02","CTRL",174,NA,1,"no-go","","hsam_t1","other-first"
"CNTRL02","CTRL",175,0.6234,1,"go","l","hsam_t1","other-first"
"CNTRL02","CTRL",176,0.5074,1,"go","l","hsam_t1","other-first"
"CNTRL02","CTRL",177,NA,1,"no-go","","hsam_t1","other-first"
"CNTRL02","CTRL",178,0.5532,1,"go","a","hsam_t1","other-first"
"CNTRL02","CTRL",179,0.4407,1,"go","a","hsam_t1","other-first"
"CNTRL02","CTRL",180,0.6667,1,"go","a","hsam_t1","other-first"
"CNTRL02","CTRL",181,NA,1,"no-go","","hsam_t1","other-first"
"CNTRL02","CTRL",182,NA,1,"no-go","","hsam_t1","other-first"
"CNTRL02","CTRL",183,NA,1,"no-go","","hsam_t1","other-first"
"CNTRL02","CTRL",184,0.443,1,"go","a","hsam_t1","other-first"
"CNTRL02","CTRL",185,NA,1,"no-go","","hsam_t1","other-first"
"CNTRL02","CTRL",186,NA,1,"no-go","","hsam_t1","other-first"
"CNTRL02","CTRL",187,NA,1,"no-go","","hsam_t1","other-first"
"CNTRL02","CTRL",188,NA,1,"no-go","","hsam_t1","other-first"
"CNTRL02","CTRL",189,0.5711,1,"go","a","hsam_t1","other-first"
"CNTRL02","CTRL",190,0.4429,1,"go","l","hsam_t1","other-first"
"CNTRL02","CTRL",191,NA,1,"no-go","","hsam_t1","other-first"
"CNTRL02","CTRL",192,NA,1,"no-go","","hsam_t1","other-first"
"CNTRL02","CTRL",193,0.6675,1,"go","a","hsam_t1","other-first"
"CNTRL02","CTRL",194,0.5048,1,"go","l","hsam_t1","other-first"
"CNTRL02","CTRL",195,0.7156,1,"go","a","hsam_t1","other-first"
"CNTRL02","CTRL",196,NA,1,"no-go","","hsam_t1","other-first"
"CNTRL02","CTRL",197,0.4683,1,"go","l","hsam_t1","other-first"
"CNTRL02","CTRL",198,NA,1,"no-go","","hsam_t1","other-first"
"CNTRL02","CTRL",199,0.4919,1,"go","a","hsam_t1","other-first"
"CNTRL02","CTRL",200,NA,1,"no-go","","hsam_t1","other-first"
"CNTRL04","CTRL",1,NA,1,"no-go","","hsam_q1","self-first"
"CNTRL04","CTRL",2,NA,1,"no-go","","hsam_q1","self-first"
"CNTRL04","CTRL",3,0.3856,1,"go","a","hsam_q1","self-first"
"CNTRL04","CTRL",4,0.4348,1,"go","l","hsam_q1","self-first"
"CNTRL04","CTRL",5,NA,1,"no-go","","hsam_q1","self-first"
"CNTRL04","CTRL",6,NA,1,"no-go","","hsam_q1","self-first"
"CNTRL04","CTRL",7,0.4361,1,"go","l","hsam_q1","self-first"
"CNTRL04","CTRL",8,NA,1,"no-go","","hsam_q1","self-first"
"CNTRL04","CTRL",9,NA,1,"no-go","","hsam_q1","self-first"
"CNTRL04","CTRL",10,0.5252,1,"go","a","hsam_q1","self-first"
"CNTRL04","CTRL",11,0.4985,1,"go","l","hsam_q1","self-first"
"CNTRL04","CTRL",12,NA,1,"no-go","","hsam_q1","self-first"
"CNTRL04","CTRL",13,NA,1,"no-go","","hsam_q1","self-first"
"CNTRL04","CTRL",14,0.4356,1,"go","l","hsam_q1","self-first"
"CNTRL04","CTRL",15,0.4938,1,"go","a","hsam_q1","self-first"
"CNTRL04","CTRL",16,0.4725,1,"go","l","hsam_q1","self-first"
"CNTRL04","CTRL",17,NA,1,"no-go","","hsam_q1","self-first"
"CNTRL04","CTRL",18,NA,1,"no-go","","hsam_q1","self-first"
"CNTRL04","CTRL",19,0.4597,1,"go","a","hsam_q1","self-first"
"CNTRL04","CTRL",20,0.3705,1,"go","a","hsam_q1","self-first"
"CNTRL04","CTRL",21,NA,1,"no-go","","hsam_q1","self-first"
"CNTRL04","CTRL",22,NA,1,"no-go","","hsam_q1","self-first"
"CNTRL04","CTRL",23,NA,1,"no-go","","hsam_q1","self-first"
"CNTRL04","CTRL",24,0.5337,1,"go","l","hsam_q1","self-first"
"CNTRL04","CTRL",25,0.4345,1,"go","l","hsam_q1","self-first"
"CNTRL04","CTRL",26,NA,1,"no-go","","hsam_q1","self-first"
"CNTRL04","CTRL",27,0.4331,1,"go","l","hsam_q1","self-first"
"CNTRL04","CTRL",28,NA,1,"no-go","","hsam_q1","self-first"
"CNTRL04","CTRL",29,0.3708,1,"go","l","hsam_q1","self-first"
"CNTRL04","CTRL",30,NA,1,"no-go","","hsam_q1","self-first"
"CNTRL04","CTRL",31,0.4383,1,"go","a","hsam_q1","self-first"
"CNTRL04","CTRL",32,0.4074,1,"go","l","hsam_q1","self-first"
"CNTRL04","CTRL",33,0.3389,1,"go","l","hsam_q1","self-first"
"CNTRL04","CTRL",34,0.509,0,"no-go","a","hsam_q1","self-first"
"CNTRL04","CTRL",35,NA,1,"no-go","","hsam_q1","self-first"
"CNTRL04","CTRL",36,0.4574,1,"go","a","hsam_q1","self-first"
"CNTRL04","CTRL",37,0.623,1,"go","a","hsam_q1","self-first"
"CNTRL04","CTRL",38,NA,1,"no-go","","hsam_q1","self-first"
"CNTRL04","CTRL",39,0.4465,1,"go","l","hsam_q1","self-first"
"CNTRL04","CTRL",40,NA,1,"no-go","","hsam_q1","self-first"
"CNTRL04","CTRL",41,0.4356,1,"go","a","hsam_q1","self-first"
"CNTRL04","CTRL",42,0.469,1,"go","a","hsam_q1","self-first"
"CNTRL04","CTRL",43,0.4475,1,"go","l","hsam_q1","self-first"
"CNTRL04","CTRL",44,NA,1,"no-go","","hsam_q1","self-first"
"CNTRL04","CTRL",45,0.5363,1,"go","a","hsam_q1","self-first"
"CNTRL04","CTRL",46,NA,1,"no-go","","hsam_q1","self-first"
"CNTRL04","CTRL",47,0.4196,1,"go","l","hsam_q1","self-first"
"CNTRL04","CTRL",48,0.4705,1,"go","l","hsam_q1","self-first"
"CNTRL04","CTRL",49,NA,1,"no-go","","hsam_q1","self-first"
"CNTRL04","CTRL",50,NA,1,"no-go","","hsam_q1","self-first"
"CNTRL04","CTRL",51,NA,1,"no-go","","hsam_q1","self-first"
"CNTRL04","CTRL",52,0.3881,1,"go","l","hsam_q1","self-first"
"CNTRL04","CTRL",53,0.4467,1,"go","a","hsam_q1","self-first"
"CNTRL04","CTRL",54,NA,1,"no-go","","hsam_q1","self-first"
"CNTRL04","CTRL",55,NA,1,"no-go","","hsam_q1","self-first"
"CNTRL04","CTRL",56,0.4372,1,"go","a","hsam_q1","self-first"
"CNTRL04","CTRL",57,0.4651,1,"go","a","hsam_q1","self-first"
"CNTRL04","CTRL",58,0.4849,1,"go","a","hsam_q1","self-first"
"CNTRL04","CTRL",59,0.3828,1,"go","a","hsam_q1","self-first"
"CNTRL04","CTRL",60,NA,1,"no-go","","hsam_q1","self-first"
"CNTRL04","CTRL",61,0.4603,1,"go","l","hsam_q1","self-first"
"CNTRL04","CTRL",62,0.3974,1,"go","l","hsam_q1","self-first"
"CNTRL04","CTRL",63,NA,1,"no-go","","hsam_q1","self-first"
"CNTRL04","CTRL",64,NA,1,"no-go","","hsam_q1","self-first"
"CNTRL04","CTRL",65,0.4232,1,"go","l","hsam_q1","self-first"
"CNTRL04","CTRL",66,NA,1,"no-go","","hsam_q1","self-first"
"CNTRL04","CTRL",67,NA,1,"no-go","","hsam_q1","self-first"
"CNTRL04","CTRL",68,NA,1,"no-go","","hsam_q1","self-first"
"CNTRL04","CTRL",69,0.384,1,"go","l","hsam_q1","self-first"
"CNTRL04","CTRL",70,NA,1,"no-go","","hsam_q1","self-first"
"CNTRL04","CTRL",71,NA,1,"no-go","","hsam_q1","self-first"
"CNTRL04","CTRL",72,0.4232,1,"go","a","hsam_q1","self-first"
"CNTRL04","CTRL",73,0.3578,1,"go","l","hsam_q1","self-first"
"CNTRL04","CTRL",74,0.4018,1,"go","a","hsam_q1","self-first"
"CNTRL04","CTRL",75,0.3392,1,"go","a","hsam_q1","self-first"
"CNTRL04","CTRL",76,NA,1,"no-go","","hsam_q1","self-first"
"CNTRL04","CTRL",77,NA,1,"no-go","","hsam_q1","self-first"
"CNTRL04","CTRL",78,NA,1,"no-go","","hsam_q1","self-first"
"CNTRL04","CTRL",79,NA,1,"no-go","","hsam_q1","self-first"
"CNTRL04","CTRL",80,0.4154,1,"go","a","hsam_q1","self-first"
"CNTRL04","CTRL",81,NA,1,"no-go","","hsam_q1","self-first"
"CNTRL04","CTRL",82,NA,1,"no-go","","hsam_q1","self-first"
"CNTRL04","CTRL",83,NA,1,"no-go","","hsam_q1","self-first"
"CNTRL04","CTRL",84,NA,1,"no-go","","hsam_q1","self-first"
"CNTRL04","CTRL",85,NA,1,"no-go","","hsam_q1","self-first"
"CNTRL04","CTRL",86,0.4305,1,"go","l","hsam_q1","self-first"
"CNTRL04","CTRL",87,0.4184,1,"go","l","hsam_q1","self-first"
"CNTRL04","CTRL",88,0.3972,1,"go","a","hsam_q1","self-first"
"CNTRL04","CTRL",89,0.4162,1,"go","a","hsam_q1","self-first"
"CNTRL04","CTRL",90,0.3409,1,"go","l","hsam_q1","self-first"
"CNTRL04","CTRL",91,NA,1,"no-go","","hsam_q1","self-first"
"CNTRL04","CTRL",92,NA,1,"no-go","","hsam_q1","self-first"
"CNTRL04","CTRL",93,NA,1,"no-go","","hsam_q1","self-first"
"CNTRL04","CTRL",94,NA,1,"no-go","","hsam_q1","self-first"
"CNTRL04","CTRL",95,0.3734,1,"go","a","hsam_q1","self-first"
"CNTRL04","CTRL",96,NA,1,"no-go","","hsam_q1","self-first"
"CNTRL04","CTRL",97,0.3882,1,"go","l","hsam_q1","self-first"
"CNTRL04","CTRL",98,0.4026,1,"go","a","hsam_q1","self-first"
"CNTRL04","CTRL",99,0.3954,1,"go","a","hsam_q1","self-first"
"CNTRL04","CTRL",100,NA,1,"no-go","","hsam_q1","self-first"
"CNTRL04","CTRL",101,NA,1,"no-go","","hsam_q1","other-first"
"CNTRL04","CTRL",102,0.4472,1,"go","l","hsam_q1","other-first"
"CNTRL04","CTRL",103,NA,1,"no-go","","hsam_q1","other-first"
"CNTRL04","CTRL",104,NA,1,"no-go","","hsam_q1","other-first"
"CNTRL04","CTRL",105,0.3979,1,"go","l","hsam_q1","other-first"
"CNTRL04","CTRL",106,0.4399,1,"go","a","hsam_q1","other-first"
"CNTRL04","CTRL",107,NA,1,"no-go","","hsam_q1","other-first"
"CNTRL04","CTRL",108,0.3748,1,"go","l","hsam_q1","other-first"
"CNTRL04","CTRL",109,NA,1,"no-go","","hsam_q1","other-first"
"CNTRL04","CTRL",110,0.4681,1,"go","l","hsam_q1","other-first"
"CNTRL04","CTRL",111,0.6011,1,"go","a","hsam_q1","other-first"
"CNTRL04","CTRL",112,NA,1,"no-go","","hsam_q1","other-first"
"CNTRL04","CTRL",113,NA,1,"no-go","","hsam_q1","other-first"
"CNTRL04","CTRL",114,0.4839,1,"go","l","hsam_q1","other-first"
"CNTRL04","CTRL",115,0.5563,1,"go","l","hsam_q1","other-first"
"CNTRL04","CTRL",116,NA,1,"no-go","","hsam_q1","other-first"
"CNTRL04","CTRL",117,0.4704,1,"go","l","hsam_q1","other-first"
"CNTRL04","CTRL",118,0.5288,1,"go","a","hsam_q1","other-first"
"CNTRL04","CTRL",119,0.474,1,"go","a","hsam_q1","other-first"
"CNTRL04","CTRL",120,0.4183,1,"go","a","hsam_q1","other-first"
"CNTRL04","CTRL",121,NA,1,"no-go","","hsam_q1","other-first"
"CNTRL04","CTRL",122,NA,1,"no-go","","hsam_q1","other-first"
"CNTRL04","CTRL",123,0.3784,1,"go","a","hsam_q1","other-first"
"CNTRL04","CTRL",124,NA,1,"no-go","","hsam_q1","other-first"
"CNTRL04","CTRL",125,0.3393,1,"go","a","hsam_q1","other-first"
"CNTRL04","CTRL",126,NA,1,"no-go","","hsam_q1","other-first"
"CNTRL04","CTRL",127,NA,1,"no-go","","hsam_q1","other-first"
"CNTRL04","CTRL",128,0.3634,1,"go","l","hsam_q1","other-first"
"CNTRL04","CTRL",129,0.3908,1,"go","l","hsam_q1","other-first"
"CNTRL04","CTRL",130,NA,1,"no-go","","hsam_q1","other-first"
"CNTRL04","CTRL",131,NA,1,"no-go","","hsam_q1","other-first"
"CNTRL04","CTRL",132,0.4634,1,"go","a","hsam_q1","other-first"
"CNTRL04","CTRL",133,NA,1,"no-go","","hsam_q1","other-first"
"CNTRL04","CTRL",134,NA,1,"no-go","","hsam_q1","other-first"
"CNTRL04","CTRL",135,NA,1,"no-go","","hsam_q1","other-first"
"CNTRL04","CTRL",136,0.3936,1,"go","a","hsam_q1","other-first"
"CNTRL04","CTRL",137,NA,1,"no-go","","hsam_q1","other-first"
"CNTRL04","CTRL",138,0.3797,1,"go","l","hsam_q1","other-first"
"CNTRL04","CTRL",139,NA,1,"no-go","","hsam_q1","other-first"
"CNTRL04","CTRL",140,NA,1,"no-go","","hsam_q1","other-first"
"CNTRL04","CTRL",141,0.3472,1,"go","a","hsam_q1","other-first"
"CNTRL04","CTRL",142,NA,1,"no-go","","hsam_q1","other-first"
"CNTRL04","CTRL",143,0.3967,1,"go","l","hsam_q1","other-first"
"CNTRL04","CTRL",144,NA,1,"no-go","","hsam_q1","other-first"
"CNTRL04","CTRL",145,0.6126,1,"go","a","hsam_q1","other-first"
"CNTRL04","CTRL",146,0.4676,1,"go","a","hsam_q1","other-first"
"CNTRL04","CTRL",147,NA,1,"no-go","","hsam_q1","other-first"
"CNTRL04","CTRL",148,0.4488,1,"go","a","hsam_q1","other-first"
"CNTRL04","CTRL",149,0.453,1,"go","l","hsam_q1","other-first"
"CNTRL04","CTRL",150,0.4873,1,"go","a","hsam_q1","other-first"
"CNTRL04","CTRL",151,0.4877,1,"go","l","hsam_q1","other-first"
"CNTRL04","CTRL",152,NA,1,"no-go","","hsam_q1","other-first"
"CNTRL04","CTRL",153,NA,1,"no-go","","hsam_q1","other-first"
"CNTRL04","CTRL",154,NA,1,"no-go","","hsam_q1","other-first"
"CNTRL04","CTRL",155,NA,1,"no-go","","hsam_q1","other-first"
"CNTRL04","CTRL",156,NA,1,"no-go","","hsam_q1","other-first"
"CNTRL04","CTRL",157,NA,1,"no-go","","hsam_q1","other-first"
"CNTRL04","CTRL",158,0.4474,1,"go","a","hsam_q1","other-first"
"CNTRL04","CTRL",159,0.4071,1,"go","a","hsam_q1","other-first"
"CNTRL04","CTRL",160,NA,1,"no-go","","hsam_q1","other-first"
"CNTRL04","CTRL",161,0.3914,1,"go","a","hsam_q1","other-first"
"CNTRL04","CTRL",162,NA,1,"no-go","","hsam_q1","other-first"
"CNTRL04","CTRL",163,NA,1,"no-go","","hsam_q1","other-first"
"CNTRL04","CTRL",164,NA,1,"no-go","","hsam_q1","other-first"
"CNTRL04","CTRL",165,NA,1,"no-go","","hsam_q1","other-first"
"CNTRL04","CTRL",166,0.64,1,"go","l","hsam_q1","other-first"
"CNTRL04","CTRL",167,NA,1,"no-go","","hsam_q1","other-first"
"CNTRL04","CTRL",168,0.6142,1,"go","a","hsam_q1","other-first"
"CNTRL04","CTRL",169,NA,1,"no-go","","hsam_q1","other-first"
"CNTRL04","CTRL",170,NA,1,"no-go","","hsam_q1","other-first"
"CNTRL04","CTRL",171,0.5572,1,"go","a","hsam_q1","other-first"
"CNTRL04","CTRL",172,0.5155,1,"go","l","hsam_q1","other-first"
"CNTRL04","CTRL",173,0.5069,1,"go","l","hsam_q1","other-first"
"CNTRL04","CTRL",174,0.4351,1,"go","l","hsam_q1","other-first"
"CNTRL04","CTRL",175,NA,1,"no-go","","hsam_q1","other-first"
"CNTRL04","CTRL",176,0.4001,1,"go","l","hsam_q1","other-first"
"CNTRL04","CTRL",177,NA,1,"no-go","","hsam_q1","other-first"
"CNTRL04","CTRL",178,0.4573,1,"go","a","hsam_q1","other-first"
"CNTRL04","CTRL",179,0.3979,1,"go","l","hsam_q1","other-first"
"CNTRL04","CTRL",180,0.364,1,"go","l","hsam_q1","other-first"
"CNTRL04","CTRL",181,0.2799,1,"go","l","hsam_q1","other-first"
"CNTRL04","CTRL",182,0.5792,1,"go","l","hsam_q1","other-first"
"CNTRL04","CTRL",183,0.4401,1,"go","l","hsam_q1","other-first"
"CNTRL04","CTRL",184,0.4671,1,"go","a","hsam_q1","other-first"
"CNTRL04","CTRL",185,NA,1,"no-go","","hsam_q1","other-first"
"CNTRL04","CTRL",186,0.456,1,"go","a","hsam_q1","other-first"
"CNTRL04","CTRL",187,NA,1,"no-go","","hsam_q1","other-first"
"CNTRL04","CTRL",188,0.4043,1,"go","a","hsam_q1","other-first"
"CNTRL04","CTRL",189,NA,1,"no-go","","hsam_q1","other-first"
"CNTRL04","CTRL",190,NA,1,"no-go","","hsam_q1","other-first"
"CNTRL04","CTRL",191,0.3503,1,"go","l","hsam_q1","other-first"
"CNTRL04","CTRL",192,NA,1,"no-go","","hsam_q1","other-first"
"CNTRL04","CTRL",193,0.3746,1,"go","a","hsam_q1","other-first"
"CNTRL04","CTRL",194,NA,1,"no-go","","hsam_q1","other-first"
"CNTRL04","CTRL",195,NA,1,"no-go","","hsam_q1","other-first"
"CNTRL04","CTRL",196,0.4143,1,"go","a","hsam_q1","other-first"
"CNTRL04","CTRL",197,0.4443,1,"go","l","hsam_q1","other-first"
"CNTRL04","CTRL",198,NA,1,"no-go","","hsam_q1","other-first"
"CNTRL04","CTRL",199,NA,1,"no-go","","hsam_q1","other-first"
"CNTRL04","CTRL",200,NA,1,"no-go","","hsam_q1","other-first"
"CNTRL05","CTRL",1,NA,1,"no-go","","hsam_t1","self-first"
"CNTRL05","CTRL",2,NA,1,"no-go","","hsam_t1","self-first"
"CNTRL05","CTRL",3,0.6966,1,"go","a","hsam_t1","self-first"
"CNTRL05","CTRL",4,NA,1,"no-go","","hsam_t1","self-first"
"CNTRL05","CTRL",5,0.4684,1,"go","l","hsam_t1","self-first"
"CNTRL05","CTRL",6,NA,1,"no-go","","hsam_t1","self-first"
"CNTRL05","CTRL",7,0.4946,1,"go","l","hsam_t1","self-first"
"CNTRL05","CTRL",8,0.4224,1,"go","l","hsam_t1","self-first"
"CNTRL05","CTRL",9,NA,1,"no-go","","hsam_t1","self-first"
"CNTRL05","CTRL",10,NA,1,"no-go","","hsam_t1","self-first"
"CNTRL05","CTRL",11,NA,1,"no-go","","hsam_t1","self-first"
"CNTRL05","CTRL",12,NA,1,"no-go","","hsam_t1","self-first"
"CNTRL05","CTRL",13,0.4751,1,"go","l","hsam_t1","self-first"
"CNTRL05","CTRL",14,0.4151,1,"go","l","hsam_t1","self-first"
"CNTRL05","CTRL",15,NA,1,"no-go","","hsam_t1","self-first"
"CNTRL05","CTRL",16,NA,1,"no-go","","hsam_t1","self-first"
"CNTRL05","CTRL",17,NA,1,"no-go","","hsam_t1","self-first"
"CNTRL05","CTRL",18,NA,1,"no-go","","hsam_t1","self-first"
"CNTRL05","CTRL",19,0.5879,1,"go","l","hsam_t1","self-first"
"CNTRL05","CTRL",20,NA,1,"no-go","","hsam_t1","self-first"
"CNTRL05","CTRL",21,NA,1,"no-go","","hsam_t1","self-first"
"CNTRL05","CTRL",22,0.5637,1,"go","a","hsam_t1","self-first"
"CNTRL05","CTRL",23,0.4572,1,"go","a","hsam_t1","self-first"
"CNTRL05","CTRL",24,NA,1,"no-go","","hsam_t1","self-first"
"CNTRL05","CTRL",25,0.4481,1,"go","l","hsam_t1","self-first"
"CNTRL05","CTRL",26,0.5207,1,"go","a","hsam_t1","self-first"
"CNTRL05","CTRL",27,0.587,1,"go","l","hsam_t1","self-first"
"CNTRL05","CTRL",28,NA,1,"no-go","","hsam_t1","self-first"
"CNTRL05","CTRL",29,NA,1,"no-go","","hsam_t1","self-first"
"CNTRL05","CTRL",30,0.4409,1,"go","a","hsam_t1","self-first"
"CNTRL05","CTRL",31,0.3869,1,"go","a","hsam_t1","self-first"
"CNTRL05","CTRL",32,0.4733,1,"go","a","hsam_t1","self-first"
"CNTRL05","CTRL",33,NA,1,"no-go","","hsam_t1","self-first"
"CNTRL05","CTRL",34,NA,1,"no-go","","hsam_t1","self-first"
"CNTRL05","CTRL",35,0.4148,1,"go","a","hsam_t1","self-first"
"CNTRL05","CTRL",36,NA,1,"no-go","","hsam_t1","self-first"
"CNTRL05","CTRL",37,NA,1,"no-go","","hsam_t1","self-first"
"CNTRL05","CTRL",38,0.5252,1,"go","l","hsam_t1","self-first"
"CNTRL05","CTRL",39,0.4971,1,"go","l","hsam_t1","self-first"
"CNTRL05","CTRL",40,0.3892,1,"go","l","hsam_t1","self-first"
"CNTRL05","CTRL",41,0.3316,1,"go","l","hsam_t1","self-first"
"CNTRL05","CTRL",42,NA,1,"no-go","","hsam_t1","self-first"
"CNTRL05","CTRL",43,NA,1,"no-go","","hsam_t1","self-first"
"CNTRL05","CTRL",44,0.4572,1,"go","a","hsam_t1","self-first"
"CNTRL05","CTRL",45,NA,1,"no-go","","hsam_t1","self-first"
"CNTRL05","CTRL",46,0.5664,0,"no-go","a","hsam_t1","self-first"
"CNTRL05","CTRL",47,NA,1,"no-go","","hsam_t1","self-first"
"CNTRL05","CTRL",48,0.5822,1,"go","a","hsam_t1","self-first"
"CNTRL05","CTRL",49,NA,1,"no-go","","hsam_t1","self-first"
"CNTRL05","CTRL",50,NA,1,"no-go","","hsam_t1","self-first"
"CNTRL05","CTRL",51,NA,1,"no-go","","hsam_t1","self-first"
"CNTRL05","CTRL",52,0.5234,1,"go","l","hsam_t1","self-first"
"CNTRL05","CTRL",53,0.4832,1,"go","a","hsam_t1","self-first"
"CNTRL05","CTRL",54,NA,1,"no-go","","hsam_t1","self-first"
"CNTRL05","CTRL",55,NA,1,"no-go","","hsam_t1","self-first"
"CNTRL05","CTRL",56,0.5832,1,"go","l","hsam_t1","self-first"
"CNTRL05","CTRL",57,NA,1,"no-go","","hsam_t1","self-first"
"CNTRL05","CTRL",58,0.4635,1,"go","l","hsam_t1","self-first"
"CNTRL05","CTRL",59,0.4448,1,"go","a","hsam_t1","self-first"
"CNTRL05","CTRL",60,0.399,1,"go","a","hsam_t1","self-first"
"CNTRL05","CTRL",61,0.3452,1,"go","a","hsam_t1","self-first"
"CNTRL05","CTRL",62,0.3502,1,"go","a","hsam_t1","self-first"
"CNTRL05","CTRL",63,0.5294,1,"go","a","hsam_t1","self-first"
"CNTRL05","CTRL",64,NA,1,"no-go","","hsam_t1","self-first"
"CNTRL05","CTRL",65,NA,1,"no-go","","hsam_t1","self-first"
"CNTRL05","CTRL",66,NA,1,"no-go","","hsam_t1","self-first"
"CNTRL05","CTRL",67,NA,1,"no-go","","hsam_t1","self-first"
"CNTRL05","CTRL",68,0.5508,1,"go","a","hsam_t1","self-first"
"CNTRL05","CTRL",69,NA,1,"no-go","","hsam_t1","self-first"
"CNTRL05","CTRL",70,0.4937,1,"go","a","hsam_t1","self-first"
"CNTRL05","CTRL",71,0.5104,1,"go","l","hsam_t1","self-first"
"CNTRL05","CTRL",72,0.3895,1,"go","a","hsam_t1","self-first"
"CNTRL05","CTRL",73,0.4133,1,"go","l","hsam_t1","self-first"
"CNTRL05","CTRL",74,NA,1,"no-go","","hsam_t1","self-first"
"CNTRL05","CTRL",75,NA,1,"no-go","","hsam_t1","self-first"
"CNTRL05","CTRL",76,NA,1,"no-go","","hsam_t1","self-first"
"CNTRL05","CTRL",77,NA,1,"no-go","","hsam_t1","self-first"
"CNTRL05","CTRL",78,NA,1,"no-go","","hsam_t1","self-first"
"CNTRL05","CTRL",79,NA,1,"no-go","","hsam_t1","self-first"
"CNTRL05","CTRL",80,0.5464,1,"go","l","hsam_t1","self-first"
"CNTRL05","CTRL",81,0.4553,1,"go","l","hsam_t1","self-first"
"CNTRL05","CTRL",82,NA,1,"no-go","","hsam_t1","self-first"
"CNTRL05","CTRL",83,NA,1,"no-go","","hsam_t1","self-first"
"CNTRL05","CTRL",84,0.467,1,"go","a","hsam_t1","self-first"
"CNTRL05","CTRL",85,NA,1,"no-go","","hsam_t1","self-first"
"CNTRL05","CTRL",86,0.4119,1,"go","l","hsam_t1","self-first"
"CNTRL05","CTRL",87,0.6575,1,"go","a","hsam_t1","self-first"
"CNTRL05","CTRL",88,0.3709,1,"go","a","hsam_t1","self-first"
"CNTRL05","CTRL",89,NA,1,"no-go","","hsam_t1","self-first"
"CNTRL05","CTRL",90,0.7474,1,"go","a","hsam_t1","self-first"
"CNTRL05","CTRL",91,NA,1,"no-go","","hsam_t1","self-first"
"CNTRL05","CTRL",92,0.4866,1,"go","l","hsam_t1","self-first"
"CNTRL05","CTRL",93,0.4113,1,"go","a","hsam_t1","self-first"
"CNTRL05","CTRL",94,0.3819,1,"go","l","hsam_t1","self-first"
"CNTRL05","CTRL",95,0.4535,1,"go","l","hsam_t1","self-first"
"CNTRL05","CTRL",96,0.4222,1,"go","l","hsam_t1","self-first"
"CNTRL05","CTRL",97,0.3351,1,"go","l","hsam_t1","self-first"
"CNTRL05","CTRL",98,0.3398,1,"go","a","hsam_t1","self-first"
"CNTRL05","CTRL",99,NA,1,"no-go","","hsam_t1","self-first"
"CNTRL05","CTRL",100,NA,1,"no-go","","hsam_t1","self-first"
"CNTRL05","CTRL",101,0.7215,1,"go","a","hsam_t1","other-first"
"CNTRL05","CTRL",102,0.7918,1,"go","l","hsam_t1","other-first"
"CNTRL05","CTRL",103,NA,1,"no-go","","hsam_t1","other-first"
"CNTRL05","CTRL",104,0.5526,1,"go","l","hsam_t1","other-first"
"CNTRL05","CTRL",105,NA,1,"no-go","","hsam_t1","other-first"
"CNTRL05","CTRL",106,0.7106,1,"go","l","hsam_t1","other-first"
"CNTRL05","CTRL",107,0.6185,1,"go","a","hsam_t1","other-first"
"CNTRL05","CTRL",108,0.4255,1,"go","l","hsam_t1","other-first"
"CNTRL05","CTRL",109,NA,1,"no-go","","hsam_t1","other-first"
"CNTRL05","CTRL",110,NA,1,"no-go","","hsam_t1","other-first"
"CNTRL05","CTRL",111,NA,1,"no-go","","hsam_t1","other-first"
"CNTRL05","CTRL",112,0.7114,1,"go","l","hsam_t1","other-first"
"CNTRL05","CTRL",113,NA,1,"no-go","","hsam_t1","other-first"
"CNTRL05","CTRL",114,NA,1,"no-go","","hsam_t1","other-first"
"CNTRL05","CTRL",115,NA,1,"no-go","","hsam_t1","other-first"
"CNTRL05","CTRL",116,0.8329,1,"go","a","hsam_t1","other-first"
"CNTRL05","CTRL",117,0.5066,1,"go","l","hsam_t1","other-first"
"CNTRL05","CTRL",118,0.4203,1,"go","a","hsam_t1","other-first"
"CNTRL05","CTRL",119,NA,1,"no-go","","hsam_t1","other-first"
"CNTRL05","CTRL",120,0.4887,1,"go","l","hsam_t1","other-first"
"CNTRL05","CTRL",121,0.8358,1,"go","a","hsam_t1","other-first"
"CNTRL05","CTRL",122,NA,1,"no-go","","hsam_t1","other-first"
"CNTRL05","CTRL",123,0.4652,1,"go","a","hsam_t1","other-first"
"CNTRL05","CTRL",124,0.7071,1,"go","l","hsam_t1","other-first"
"CNTRL05","CTRL",125,0.4601,0,"no-go","a","hsam_t1","other-first"
"CNTRL05","CTRL",126,0.8269,1,"go","l","hsam_t1","other-first"
"CNTRL05","CTRL",127,0.4307,1,"go","a","hsam_t1","other-first"
"CNTRL05","CTRL",128,NA,1,"no-go","","hsam_t1","other-first"
"CNTRL05","CTRL",129,0.6563,0,"no-go","l","hsam_t1","other-first"
"CNTRL05","CTRL",130,NA,1,"no-go","","hsam_t1","other-first"
"CNTRL05","CTRL",131,0.5471,1,"go","l","hsam_t1","other-first"
"CNTRL05","CTRL",132,0.4028,1,"go","a","hsam_t1","other-first"
"CNTRL05","CTRL",133,NA,1,"no-go","","hsam_t1","other-first"
"CNTRL05","CTRL",134,NA,1,"no-go","","hsam_t1","other-first"
"CNTRL05","CTRL",135,NA,1,"no-go","","hsam_t1","other-first"
"CNTRL05","CTRL",136,NA,1,"no-go","","hsam_t1","other-first"
"CNTRL05","CTRL",137,0.4472,1,"go","l","hsam_t1","other-first"
"CNTRL05","CTRL",138,0.45,1,"go","l","hsam_t1","other-first"
"CNTRL05","CTRL",139,0.4674,1,"go","a","hsam_t1","other-first"
"CNTRL05","CTRL",140,NA,1,"no-go","","hsam_t1","other-first"
"CNTRL05","CTRL",141,NA,1,"no-go","","hsam_t1","other-first"
"CNTRL05","CTRL",142,0.7266,1,"go","l","hsam_t1","other-first"
"CNTRL05","CTRL",143,NA,1,"no-go","","hsam_t1","other-first"
"CNTRL05","CTRL",144,NA,1,"no-go","","hsam_t1","other-first"
"CNTRL05","CTRL",145,0.6832,1,"go","a","hsam_t1","other-first"
"CNTRL05","CTRL",146,NA,1,"no-go","","hsam_t1","other-first"
"CNTRL05","CTRL",147,NA,1,"no-go","","hsam_t1","other-first"
"CNTRL05","CTRL",148,0.4797,1,"go","a","hsam_t1","other-first"
"CNTRL05","CTRL",149,0.4451,1,"go","a","hsam_t1","other-first"
"CNTRL05","CTRL",150,0.5438,1,"go","l","hsam_t1","other-first"
"CNTRL05","CTRL",151,0.4637,1,"go","l","hsam_t1","other-first"
"CNTRL05","CTRL",152,0.5339,1,"go","a","hsam_t1","other-first"
"CNTRL05","CTRL",153,NA,1,"no-go","","hsam_t1","other-first"
"CNTRL05","CTRL",154,0.4344,1,"go","l","hsam_t1","other-first"
"CNTRL05","CTRL",155,NA,1,"no-go","","hsam_t1","other-first"
"CNTRL05","CTRL",156,0.5105,1,"go","a","hsam_t1","other-first"
"CNTRL05","CTRL",157,0.6657,1,"go","a","hsam_t1","other-first"
"CNTRL05","CTRL",158,0.6909,1,"go","l","hsam_t1","other-first"
"CNTRL05","CTRL",159,NA,1,"no-go","","hsam_t1","other-first"
"CNTRL05","CTRL",160,0.519,1,"go","a","hsam_t1","other-first"
"CNTRL05","CTRL",161,NA,1,"no-go","","hsam_t1","other-first"
"CNTRL05","CTRL",162,NA,1,"no-go","","hsam_t1","other-first"
"CNTRL05","CTRL",163,NA,1,"no-go","","hsam_t1","other-first"
"CNTRL05","CTRL",164,0.567,1,"go","l","hsam_t1","other-first"
"CNTRL05","CTRL",165,NA,1,"no-go","","hsam_t1","other-first"
"CNTRL05","CTRL",166,NA,1,"no-go","","hsam_t1","other-first"
"CNTRL05","CTRL",167,0.5413,1,"go","a","hsam_t1","other-first"
"CNTRL05","CTRL",168,NA,1,"no-go","","hsam_t1","other-first"
"CNTRL05","CTRL",169,NA,1,"no-go","","hsam_t1","other-first"
"CNTRL05","CTRL",170,0.5689,1,"go","a","hsam_t1","other-first"
"CNTRL05","CTRL",171,NA,1,"no-go","","hsam_t1","other-first"
"CNTRL05","CTRL",172,0.4726,1,"go","l","hsam_t1","other-first"
"CNTRL05","CTRL",173,0.4849,1,"go","l","hsam_t1","other-first"
"CNTRL05","CTRL",174,NA,1,"no-go","","hsam_t1","other-first"
"CNTRL05","CTRL",175,NA,0,"go","","hsam_t1","other-first"
"CNTRL05","CTRL",176,0.6882,1,"go","l","hsam_t1","other-first"
"CNTRL05","CTRL",177,0.3917,1,"go","l","hsam_t1","other-first"
"CNTRL05","CTRL",178,NA,1,"no-go","","hsam_t1","other-first"
"CNTRL05","CTRL",179,0.5465,1,"go","a","hsam_t1","other-first"
"CNTRL05","CTRL",180,NA,1,"no-go","","hsam_t1","other-first"
"CNTRL05","CTRL",181,0.6136,1,"go","l","hsam_t1","other-first"
"CNTRL05","CTRL",182,NA,1,"no-go","","hsam_t1","other-first"
"CNTRL05","CTRL",183,NA,1,"no-go","","hsam_t1","other-first"
"CNTRL05","CTRL",184,NA,1,"no-go","","hsam_t1","other-first"
"CNTRL05","CTRL",185,NA,1,"no-go","","hsam_t1","other-first"
"CNTRL05","CTRL",186,0.4008,1,"go","a","hsam_t1","other-first"
"CNTRL05","CTRL",187,0.5488,1,"go","a","hsam_t1","other-first"
"CNTRL05","CTRL",188,NA,1,"no-go","","hsam_t1","other-first"
"CNTRL05","CTRL",189,NA,1,"no-go","","hsam_t1","other-first"
"CNTRL05","CTRL",190,0.558,1,"go","a","hsam_t1","other-first"
"CNTRL05","CTRL",191,0.4719,1,"go","a","hsam_t1","other-first"
"CNTRL05","CTRL",192,NA,1,"no-go","","hsam_t1","other-first"
"CNTRL05","CTRL",193,NA,1,"no-go","","hsam_t1","other-first"
"CNTRL05","CTRL",194,NA,1,"no-go","","hsam_t1","other-first"
"CNTRL05","CTRL",195,0.5849,1,"go","l","hsam_t1","other-first"
"CNTRL05","CTRL",196,NA,1,"no-go","","hsam_t1","other-first"
"CNTRL05","CTRL",197,NA,1,"no-go","","hsam_t1","other-first"
"CNTRL05","CTRL",198,0.5309,1,"go","l","hsam_t1","other-first"
"CNTRL05","CTRL",199,0.6731,1,"go","a","hsam_t1","other-first"
"CNTRL05","CTRL",200,NA,1,"no-go","","hsam_t1","other-first"
"CNTRL07","CTRL",1,NA,0,"go","","hsam_t1","self-first"
"CNTRL07","CTRL",2,0.5117,1,"go","a","hsam_t1","self-first"
"CNTRL07","CTRL",3,NA,1,"no-go","","hsam_t1","self-first"
"CNTRL07","CTRL",4,0.7847,1,"go","a","hsam_t1","self-first"
"CNTRL07","CTRL",5,NA,1,"no-go","","hsam_t1","self-first"
"CNTRL07","CTRL",6,NA,1,"no-go","","hsam_t1","self-first"
"CNTRL07","CTRL",7,0.6293,1,"go","a","hsam_t1","self-first"
"CNTRL07","CTRL",8,NA,1,"no-go","","hsam_t1","self-first"
"CNTRL07","CTRL",9,0.5183,1,"go","a","hsam_t1","self-first"
"CNTRL07","CTRL",10,NA,1,"no-go","","hsam_t1","self-first"
"CNTRL07","CTRL",11,NA,1,"no-go","","hsam_t1","self-first"
"CNTRL07","CTRL",12,NA,1,"no-go","","hsam_t1","self-first"
"CNTRL07","CTRL",13,NA,1,"no-go","","hsam_t1","self-first"
"CNTRL07","CTRL",14,0.6508,1,"go","a","hsam_t1","self-first"
"CNTRL07","CTRL",15,NA,1,"no-go","","hsam_t1","self-first"
"CNTRL07","CTRL",16,0.4596,1,"go","a","hsam_t1","self-first"
"CNTRL07","CTRL",17,NA,1,"no-go","","hsam_t1","self-first"
"CNTRL07","CTRL",18,NA,1,"no-go","","hsam_t1","self-first"
"CNTRL07","CTRL",19,NA,1,"no-go","","hsam_t1","self-first"
"CNTRL07","CTRL",20,0.67,1,"go","l","hsam_t1","self-first"
"CNTRL07","CTRL",21,0.4553,1,"go","a","hsam_t1","self-first"
"CNTRL07","CTRL",22,NA,1,"no-go","","hsam_t1","self-first"
"CNTRL07","CTRL",23,NA,1,"no-go","","hsam_t1","self-first"
"CNTRL07","CTRL",24,0.6182,1,"go","a","hsam_t1","self-first"
"CNTRL07","CTRL",25,NA,1,"no-go","","hsam_t1","self-first"
"CNTRL07","CTRL",26,NA,1,"no-go","","hsam_t1","self-first"
"CNTRL07","CTRL",27,NA,1,"no-go","","hsam_t1","self-first"
"CNTRL07","CTRL",28,NA,1,"no-go","","hsam_t1","self-first"
"CNTRL07","CTRL",29,NA,1,"no-go","","hsam_t1","self-first"
"CNTRL07","CTRL",30,0.5521,1,"go","a","hsam_t1","self-first"
"CNTRL07","CTRL",31,0.4509,1,"go","l","hsam_t1","self-first"
"CNTRL07","CTRL",32,NA,1,"no-go","","hsam_t1","self-first"
"CNTRL07","CTRL",33,0.5346,1,"go","a","hsam_t1","self-first"
"CNTRL07","CTRL",34,0.4536,1,"go","l","hsam_t1","self-first"
"CNTRL07","CTRL",35,NA,1,"no-go","","hsam_t1","self-first"
"CNTRL07","CTRL",36,0.7022,1,"go","a","hsam_t1","self-first"
"CNTRL07","CTRL",37,NA,1,"no-go","","hsam_t1","self-first"
"CNTRL07","CTRL",38,0.717,1,"go","l","hsam_t1","self-first"
"CNTRL07","CTRL",39,0.4199,1,"go","l","hsam_t1","self-first"
"CNTRL07","CTRL",40,0.3945,1,"go","l","hsam_t1","self-first"
"CNTRL07","CTRL",41,0.4664,1,"go","a","hsam_t1","self-first"
"CNTRL07","CTRL",42,NA,1,"no-go","","hsam_t1","self-first"
"CNTRL07","CTRL",43,NA,1,"no-go","","hsam_t1","self-first"
"CNTRL07","CTRL",44,0.4293,1,"go","l","hsam_t1","self-first"
"CNTRL07","CTRL",45,NA,1,"no-go","","hsam_t1","self-first"
"CNTRL07","CTRL",46,NA,1,"no-go","","hsam_t1","self-first"
"CNTRL07","CTRL",47,0.3971,1,"go","a","hsam_t1","self-first"
"CNTRL07","CTRL",48,NA,1,"no-go","","hsam_t1","self-first"
"CNTRL07","CTRL",49,NA,1,"no-go","","hsam_t1","self-first"
"CNTRL07","CTRL",50,0.4578,0,"no-go","l","hsam_t1","self-first"
"CNTRL07","CTRL",51,NA,1,"no-go","","hsam_t1","self-first"
"CNTRL07","CTRL",52,NA,1,"no-go","","hsam_t1","self-first"
"CNTRL07","CTRL",53,0.5019,1,"go","a","hsam_t1","self-first"
"CNTRL07","CTRL",54,NA,1,"no-go","","hsam_t1","self-first"
"CNTRL07","CTRL",55,0.4674,1,"go","a","hsam_t1","self-first"
"CNTRL07","CTRL",56,NA,1,"no-go","","hsam_t1","self-first"
"CNTRL07","CTRL",57,NA,1,"no-go","","hsam_t1","self-first"
"CNTRL07","CTRL",58,0.6623,1,"go","l","hsam_t1","self-first"
"CNTRL07","CTRL",59,0.5519,1,"go","a","hsam_t1","self-first"
"CNTRL07","CTRL",60,NA,0,"go","","hsam_t1","self-first"
"CNTRL07","CTRL",61,0.8624,1,"go","l","hsam_t1","self-first"
"CNTRL07","CTRL",62,NA,1,"no-go","","hsam_t1","self-first"
"CNTRL07","CTRL",63,NA,1,"no-go","","hsam_t1","self-first"
"CNTRL07","CTRL",64,NA,1,"no-go","","hsam_t1","self-first"
"CNTRL07","CTRL",65,NA,1,"no-go","","hsam_t1","self-first"
"CNTRL07","CTRL",66,NA,1,"no-go","","hsam_t1","self-first"
"CNTRL07","CTRL",67,NA,1,"no-go","","hsam_t1","self-first"
"CNTRL07","CTRL",68,0.5621,1,"go","l","hsam_t1","self-first"
"CNTRL07","CTRL",69,NA,1,"no-go","","hsam_t1","self-first"
"CNTRL07","CTRL",70,NA,1,"no-go","","hsam_t1","self-first"
"CNTRL07","CTRL",71,0.4834,1,"go","a","hsam_t1","self-first"
"CNTRL07","CTRL",72,NA,1,"no-go","","hsam_t1","self-first"
"CNTRL07","CTRL",73,0.5865,1,"go","l","hsam_t1","self-first"
"CNTRL07","CTRL",74,NA,1,"no-go","","hsam_t1","self-first"
"CNTRL07","CTRL",75,0.416,1,"go","l","hsam_t1","self-first"
"CNTRL07","CTRL",76,0.4661,1,"go","l","hsam_t1","self-first"
"CNTRL07","CTRL",77,0.3873,1,"go","l","hsam_t1","self-first"
"CNTRL07","CTRL",78,0.3673,1,"go","l","hsam_t1","self-first"
"CNTRL07","CTRL",79,0.4976,1,"go","a","hsam_t1","self-first"
"CNTRL07","CTRL",80,0.397,1,"go","l","hsam_t1","self-first"
"CNTRL07","CTRL",81,NA,1,"no-go","","hsam_t1","self-first"
"CNTRL07","CTRL",82,NA,1,"no-go","","hsam_t1","self-first"
"CNTRL07","CTRL",83,0.5229,1,"go","a","hsam_t1","self-first"
"CNTRL07","CTRL",84,0.4275,1,"go","l","hsam_t1","self-first"
"CNTRL07","CTRL",85,NA,1,"no-go","","hsam_t1","self-first"
"CNTRL07","CTRL",86,0.4628,1,"go","l","hsam_t1","self-first"
"CNTRL07","CTRL",87,0.4431,1,"go","l","hsam_t1","self-first"
"CNTRL07","CTRL",88,NA,1,"no-go","","hsam_t1","self-first"
"CNTRL07","CTRL",89,0.4378,1,"go","l","hsam_t1","self-first"
"CNTRL07","CTRL",90,0.4315,1,"go","l","hsam_t1","self-first"
"CNTRL07","CTRL",91,0.4195,1,"go","l","hsam_t1","self-first"
"CNTRL07","CTRL",92,0.3953,1,"go","l","hsam_t1","self-first"
"CNTRL07","CTRL",93,0.4033,1,"go","a","hsam_t1","self-first"
"CNTRL07","CTRL",94,NA,1,"no-go","","hsam_t1","self-first"
"CNTRL07","CTRL",95,0.5656,1,"go","l","hsam_t1","self-first"
"CNTRL07","CTRL",96,0.4475,1,"go","a","hsam_t1","self-first"
"CNTRL07","CTRL",97,0.4488,1,"go","a","hsam_t1","self-first"
"CNTRL07","CTRL",98,NA,1,"no-go","","hsam_t1","self-first"
"CNTRL07","CTRL",99,0.522,1,"go","a","hsam_t1","self-first"
"CNTRL07","CTRL",100,0.5242,1,"go","l","hsam_t1","self-first"
"CNTRL07","CTRL",101,NA,1,"no-go","","hsam_t1","other-first"
"CNTRL07","CTRL",102,NA,1,"no-go","","hsam_t1","other-first"
"CNTRL07","CTRL",103,NA,1,"no-go","","hsam_t1","other-first"
"CNTRL07","CTRL",104,NA,1,"no-go","","hsam_t1","other-first"
"CNTRL07","CTRL",105,NA,1,"no-go","","hsam_t1","other-first"
"CNTRL07","CTRL",106,NA,0,"go","","hsam_t1","other-first"
"CNTRL07","CTRL",107,0.6642,1,"go","l","hsam_t1","other-first"
"CNTRL07","CTRL",108,0.6792,1,"go","a","hsam_t1","other-first"
"CNTRL07","CTRL",109,NA,1,"no-go","","hsam_t1","other-first"
"CNTRL07","CTRL",110,NA,1,"no-go","","hsam_t1","other-first"
"CNTRL07","CTRL",111,NA,1,"no-go","","hsam_t1","other-first"
"CNTRL07","CTRL",112,0.6292,1,"go","a","hsam_t1","other-first"
"CNTRL07","CTRL",113,NA,1,"no-go","","hsam_t1","other-first"
"CNTRL07","CTRL",114,NA,1,"no-go","","hsam_t1","other-first"
"CNTRL07","CTRL",115,0.893,1,"go","a","hsam_t1","other-first"
"CNTRL07","CTRL",116,NA,1,"no-go","","hsam_t1","other-first"
"CNTRL07","CTRL",117,0.5943,1,"go","a","hsam_t1","other-first"
"CNTRL07","CTRL",118,NA,1,"no-go","","hsam_t1","other-first"
"CNTRL07","CTRL",119,NA,1,"no-go","","hsam_t1","other-first"
"CNTRL07","CTRL",120,0.4846,1,"go","a","hsam_t1","other-first"
"CNTRL07","CTRL",121,0.5787,1,"go","l","hsam_t1","other-first"
"CNTRL07","CTRL",122,NA,1,"no-go","","hsam_t1","other-first"
"CNTRL07","CTRL",123,NA,1,"no-go","","hsam_t1","other-first"
"CNTRL07","CTRL",124,0.3824,1,"go","a","hsam_t1","other-first"
"CNTRL07","CTRL",125,NA,1,"no-go","","hsam_t1","other-first"
"CNTRL07","CTRL",126,NA,0,"go","","hsam_t1","other-first"
"CNTRL07","CTRL",127,NA,0,"go","","hsam_t1","other-first"
"CNTRL07","CTRL",128,0.6515,1,"go","l","hsam_t1","other-first"
"CNTRL07","CTRL",129,0.4112,1,"go","a","hsam_t1","other-first"
"CNTRL07","CTRL",130,NA,1,"no-go","","hsam_t1","other-first"
"CNTRL07","CTRL",131,0.4323,1,"go","a","hsam_t1","other-first"
"CNTRL07","CTRL",132,0.5171,1,"go","l","hsam_t1","other-first"
"CNTRL07","CTRL",133,NA,1,"no-go","","hsam_t1","other-first"
"CNTRL07","CTRL",134,0.5021,1,"go","l","hsam_t1","other-first"
"CNTRL07","CTRL",135,0.4459,1,"go","a","hsam_t1","other-first"
"CNTRL07","CTRL",136,NA,1,"no-go","","hsam_t1","other-first"
"CNTRL07","CTRL",137,NA,1,"no-go","","hsam_t1","other-first"
"CNTRL07","CTRL",138,0.7624,0,"no-go","l","hsam_t1","other-first"
"CNTRL07","CTRL",139,0.5179,1,"go","l","hsam_t1","other-first"
"CNTRL07","CTRL",140,0.6288,1,"go","a","hsam_t1","other-first"
"CNTRL07","CTRL",141,0.5523,1,"go","l","hsam_t1","other-first"
"CNTRL07","CTRL",142,NA,1,"no-go","","hsam_t1","other-first"
"CNTRL07","CTRL",143,NA,1,"no-go","","hsam_t1","other-first"
"CNTRL07","CTRL",144,0.6933,1,"go","l","hsam_t1","other-first"
"CNTRL07","CTRL",145,NA,0,"go","","hsam_t1","other-first"
"CNTRL07","CTRL",146,0.9502,1,"go","a","hsam_t1","other-first"
"CNTRL07","CTRL",147,0.6949,1,"go","l","hsam_t1","other-first"
"CNTRL07","CTRL",148,NA,1,"no-go","","hsam_t1","other-first"
"CNTRL07","CTRL",149,0.5528,1,"go","l","hsam_t1","other-first"
"CNTRL07","CTRL",150,0.6666,1,"go","a","hsam_t1","other-first"
"CNTRL07","CTRL",151,0.5438,1,"go","a","hsam_t1","other-first"
"CNTRL07","CTRL",152,NA,1,"no-go","","hsam_t1","other-first"
"CNTRL07","CTRL",153,0.4518,1,"go","l","hsam_t1","other-first"
"CNTRL07","CTRL",154,NA,1,"no-go","","hsam_t1","other-first"
"CNTRL07","CTRL",155,0.3681,1,"go","a","hsam_t1","other-first"
"CNTRL07","CTRL",156,NA,1,"no-go","","hsam_t1","other-first"
"CNTRL07","CTRL",157,0.4837,0,"no-go","a","hsam_t1","other-first"
"CNTRL07","CTRL",158,0.4212,1,"go","a","hsam_t1","other-first"
"CNTRL07","CTRL",159,NA,1,"no-go","","hsam_t1","other-first"
"CNTRL07","CTRL",160,NA,1,"no-go","","hsam_t1","other-first"
"CNTRL07","CTRL",161,0.5119,1,"go","l","hsam_t1","other-first"
"CNTRL07","CTRL",162,0.5311,1,"go","a","hsam_t1","other-first"
"CNTRL07","CTRL",163,0.4966,1,"go","a","hsam_t1","other-first"
"CNTRL07","CTRL",164,0.5577,1,"go","a","hsam_t1","other-first"
"CNTRL07","CTRL",165,0.5461,1,"go","l","hsam_t1","other-first"
"CNTRL07","CTRL",166,NA,1,"no-go","","hsam_t1","other-first"
"CNTRL07","CTRL",167,NA,1,"no-go","","hsam_t1","other-first"
"CNTRL07","CTRL",168,0.4659,1,"go","l","hsam_t1","other-first"
"CNTRL07","CTRL",169,NA,1,"no-go","","hsam_t1","other-first"
"CNTRL07","CTRL",170,0.4723,1,"go","l","hsam_t1","other-first"
"CNTRL07","CTRL",171,0.4888,1,"go","l","hsam_t1","other-first"
"CNTRL07","CTRL",172,NA,1,"no-go","","hsam_t1","other-first"
"CNTRL07","CTRL",173,NA,1,"no-go","","hsam_t1","other-first"
"CNTRL07","CTRL",174,0.4094,1,"go","l","hsam_t1","other-first"
"CNTRL07","CTRL",175,0.4888,1,"go","a","hsam_t1","other-first"
"CNTRL07","CTRL",176,NA,1,"no-go","","hsam_t1","other-first"
"CNTRL07","CTRL",177,NA,1,"no-go","","hsam_t1","other-first"
"CNTRL07","CTRL",178,NA,1,"no-go","","hsam_t1","other-first"
"CNTRL07","CTRL",179,0.3586,1,"go","l","hsam_t1","other-first"
"CNTRL07","CTRL",180,NA,1,"no-go","","hsam_t1","other-first"
"CNTRL07","CTRL",181,0.5194,1,"go","a","hsam_t1","other-first"
"CNTRL07","CTRL",182,0.5235,1,"go","a","hsam_t1","other-first"
"CNTRL07","CTRL",183,0.6133,1,"go","a","hsam_t1","other-first"
"CNTRL07","CTRL",184,NA,1,"no-go","","hsam_t1","other-first"
"CNTRL07","CTRL",185,NA,1,"no-go","","hsam_t1","other-first"
"CNTRL07","CTRL",186,NA,1,"no-go","","hsam_t1","other-first"
"CNTRL07","CTRL",187,NA,1,"no-go","","hsam_t1","other-first"
"CNTRL07","CTRL",188,0.4953,1,"go","a","hsam_t1","other-first"
"CNTRL07","CTRL",189,NA,1,"no-go","","hsam_t1","other-first"
"CNTRL07","CTRL",190,0.3892,1,"go","l","hsam_t1","other-first"
"CNTRL07","CTRL",191,0.4897,1,"go","l","hsam_t1","other-first"
"CNTRL07","CTRL",192,NA,1,"no-go","","hsam_t1","other-first"
"CNTRL07","CTRL",193,0.4466,1,"go","l","hsam_t1","other-first"
"CNTRL07","CTRL",194,NA,1,"no-go","","hsam_t1","other-first"
"CNTRL07","CTRL",195,0.4671,1,"go","l","hsam_t1","other-first"
"CNTRL07","CTRL",196,NA,1,"no-go","","hsam_t1","other-first"
"CNTRL07","CTRL",197,NA,1,"no-go","","hsam_t1","other-first"
"CNTRL07","CTRL",198,0.4644,1,"go","l","hsam_t1","other-first"
"CNTRL07","CTRL",199,NA,1,"no-go","","hsam_t1","other-first"
"CNTRL07","CTRL",200,NA,1,"no-go","","hsam_t1","other-first"
"CNTRL08","CTRL",1,0.7289,1,"go","a","hsam_q2","other-first"
"CNTRL08","CTRL",2,0.3994,1,"go","a","hsam_q2","other-first"
"CNTRL08","CTRL",3,NA,1,"no-go","","hsam_q2","other-first"
"CNTRL08","CTRL",4,NA,1,"no-go","","hsam_q2","other-first"
"CNTRL08","CTRL",5,0.4191,1,"go","l","hsam_q2","other-first"
"CNTRL08","CTRL",6,NA,1,"no-go","","hsam_q2","other-first"
"CNTRL08","CTRL",7,0.4098,1,"go","l","hsam_q2","other-first"
"CNTRL08","CTRL",8,NA,1,"no-go","","hsam_q2","other-first"
"CNTRL08","CTRL",9,0.3891,1,"go","a","hsam_q2","other-first"
"CNTRL08","CTRL",10,0.4598,1,"go","l","hsam_q2","other-first"
"CNTRL08","CTRL",11,NA,1,"no-go","","hsam_q2","other-first"
"CNTRL08","CTRL",12,0.4074,1,"go","l","hsam_q2","other-first"
"CNTRL08","CTRL",13,NA,1,"no-go","","hsam_q2","other-first"
"CNTRL08","CTRL",14,NA,1,"no-go","","hsam_q2","other-first"
"CNTRL08","CTRL",15,NA,1,"no-go","","hsam_q2","other-first"
"CNTRL08","CTRL",16,NA,1,"no-go","","hsam_q2","other-first"
"CNTRL08","CTRL",17,0.4098,1,"go","a","hsam_q2","other-first"
"CNTRL08","CTRL",18,NA,1,"no-go","","hsam_q2","other-first"
"CNTRL08","CTRL",19,NA,1,"no-go","","hsam_q2","other-first"
"CNTRL08","CTRL",20,NA,1,"no-go","","hsam_q2","other-first"
"CNTRL08","CTRL",21,0.4224,1,"go","a","hsam_q2","other-first"
"CNTRL08","CTRL",22,NA,1,"no-go","","hsam_q2","other-first"
"CNTRL08","CTRL",23,NA,1,"no-go","","hsam_q2","other-first"
"CNTRL08","CTRL",24,0.4019,1,"go","l","hsam_q2","other-first"
"CNTRL08","CTRL",25,0.4255,1,"go","l","hsam_q2","other-first"
"CNTRL08","CTRL",26,0.4558,1,"go","a","hsam_q2","other-first"
"CNTRL08","CTRL",27,NA,1,"no-go","","hsam_q2","other-first"
"CNTRL08","CTRL",28,0.5066,1,"go","a","hsam_q2","other-first"
"CNTRL08","CTRL",29,NA,1,"no-go","","hsam_q2","other-first"
"CNTRL08","CTRL",30,0.3831,1,"go","l","hsam_q2","other-first"
"CNTRL08","CTRL",31,NA,1,"no-go","","hsam_q2","other-first"
"CNTRL08","CTRL",32,NA,1,"no-go","","hsam_q2","other-first"
"CNTRL08","CTRL",33,NA,1,"no-go","","hsam_q2","other-first"
"CNTRL08","CTRL",34,0.4113,1,"go","a","hsam_q2","other-first"
"CNTRL08","CTRL",35,NA,1,"no-go","","hsam_q2","other-first"
"CNTRL08","CTRL",36,NA,1,"no-go","","hsam_q2","other-first"
"CNTRL08","CTRL",37,0.5222,1,"go","a","hsam_q2","other-first"
"CNTRL08","CTRL",38,NA,1,"no-go","","hsam_q2","other-first"
"CNTRL08","CTRL",39,0.4099,1,"go","l","hsam_q2","other-first"
"CNTRL08","CTRL",40,NA,1,"no-go","","hsam_q2","other-first"
"CNTRL08","CTRL",41,0.4575,1,"go","a","hsam_q2","other-first"
"CNTRL08","CTRL",42,NA,1,"no-go","","hsam_q2","other-first"
"CNTRL08","CTRL",43,NA,1,"no-go","","hsam_q2","other-first"
"CNTRL08","CTRL",44,NA,1,"no-go","","hsam_q2","other-first"
"CNTRL08","CTRL",45,NA,1,"no-go","","hsam_q2","other-first"
"CNTRL08","CTRL",46,0.5487,1,"go","a","hsam_q2","other-first"
"CNTRL08","CTRL",47,NA,1,"no-go","","hsam_q2","other-first"
"CNTRL08","CTRL",48,NA,1,"no-go","","hsam_q2","other-first"
"CNTRL08","CTRL",49,NA,1,"no-go","","hsam_q2","other-first"
"CNTRL08","CTRL",50,NA,1,"no-go","","hsam_q2","other-first"
"CNTRL08","CTRL",51,0.4404,1,"go","l","hsam_q2","other-first"
"CNTRL08","CTRL",52,0.4342,1,"go","l","hsam_q2","other-first"
"CNTRL08","CTRL",53,0.4164,1,"go","a","hsam_q2","other-first"
"CNTRL08","CTRL",54,0.4006,1,"go","a","hsam_q2","other-first"
"CNTRL08","CTRL",55,0.4657,1,"go","a","hsam_q2","other-first"
"CNTRL08","CTRL",56,0.4646,1,"go","a","hsam_q2","other-first"
"CNTRL08","CTRL",57,0.4703,1,"go","l","hsam_q2","other-first"
"CNTRL08","CTRL",58,NA,1,"no-go","","hsam_q2","other-first"
"CNTRL08","CTRL",59,0.4314,1,"go","a","hsam_q2","other-first"
"CNTRL08","CTRL",60,0.4087,1,"go","a","hsam_q2","other-first"
"CNTRL08","CTRL",61,NA,1,"no-go","","hsam_q2","other-first"
"CNTRL08","CTRL",62,0.4117,1,"go","l","hsam_q2","other-first"
"CNTRL08","CTRL",63,0.3621,1,"go","a","hsam_q2","other-first"
"CNTRL08","CTRL",64,0.3602,1,"go","l","hsam_q2","other-first"
"CNTRL08","CTRL",65,NA,0,"go","","hsam_q2","other-first"
"CNTRL08","CTRL",66,0.4917,1,"go","l","hsam_q2","other-first"
"CNTRL08","CTRL",67,0.444,1,"go","a","hsam_q2","other-first"
"CNTRL08","CTRL",68,NA,1,"no-go","","hsam_q2","other-first"
"CNTRL08","CTRL",69,NA,1,"no-go","","hsam_q2","other-first"
"CNTRL08","CTRL",70,0.4006,1,"go","l","hsam_q2","other-first"
"CNTRL08","CTRL",71,0.4613,1,"go","a","hsam_q2","other-first"
"CNTRL08","CTRL",72,NA,1,"no-go","","hsam_q2","other-first"
"CNTRL08","CTRL",73,NA,1,"no-go","","hsam_q2","other-first"
"CNTRL08","CTRL",74,0.5813,1,"go","a","hsam_q2","other-first"
"CNTRL08","CTRL",75,0.3962,1,"go","a","hsam_q2","other-first"
"CNTRL08","CTRL",76,NA,1,"no-go","","hsam_q2","other-first"
"CNTRL08","CTRL",77,NA,1,"no-go","","hsam_q2","other-first"
"CNTRL08","CTRL",78,NA,1,"no-go","","hsam_q2","other-first"
"CNTRL08","CTRL",79,0.4343,1,"go","l","hsam_q2","other-first"
"CNTRL08","CTRL",80,0.3723,1,"go","a","hsam_q2","other-first"
"CNTRL08","CTRL",81,0.3851,1,"go","l","hsam_q2","other-first"
"CNTRL08","CTRL",82,NA,1,"no-go","","hsam_q2","other-first"
"CNTRL08","CTRL",83,0.5488,1,"go","l","hsam_q2","other-first"
"CNTRL08","CTRL",84,NA,1,"no-go","","hsam_q2","other-first"
"CNTRL08","CTRL",85,0.4948,1,"go","l","hsam_q2","other-first"
"CNTRL08","CTRL",86,0.3849,1,"go","a","hsam_q2","other-first"
"CNTRL08","CTRL",87,0.4207,1,"go","l","hsam_q2","other-first"
"CNTRL08","CTRL",88,NA,1,"no-go","","hsam_q2","other-first"
"CNTRL08","CTRL",89,NA,1,"no-go","","hsam_q2","other-first"
"CNTRL08","CTRL",90,NA,1,"no-go","","hsam_q2","other-first"
"CNTRL08","CTRL",91,NA,1,"no-go","","hsam_q2","other-first"
"CNTRL08","CTRL",92,0.4627,1,"go","l","hsam_q2","other-first"
"CNTRL08","CTRL",93,NA,1,"no-go","","hsam_q2","other-first"
"CNTRL08","CTRL",94,0.5261,1,"go","l","hsam_q2","other-first"
"CNTRL08","CTRL",95,NA,1,"no-go","","hsam_q2","other-first"
"CNTRL08","CTRL",96,0.3733,1,"go","l","hsam_q2","other-first"
"CNTRL08","CTRL",97,NA,0,"go","","hsam_q2","other-first"
"CNTRL08","CTRL",98,0.4373,1,"go","a","hsam_q2","other-first"
"CNTRL08","CTRL",99,NA,1,"no-go","","hsam_q2","other-first"
"CNTRL08","CTRL",100,NA,1,"no-go","","hsam_q2","other-first"
"CNTRL08","CTRL",101,0.3911,1,"go","l","hsam_q2","self-first"
"CNTRL08","CTRL",102,NA,1,"no-go","","hsam_q2","self-first"
"CNTRL08","CTRL",103,NA,1,"no-go","","hsam_q2","self-first"
"CNTRL08","CTRL",104,NA,1,"no-go","","hsam_q2","self-first"
"CNTRL08","CTRL",105,NA,1,"no-go","","hsam_q2","self-first"
"CNTRL08","CTRL",106,0.4517,1,"go","l","hsam_q2","self-first"
"CNTRL08","CTRL",107,NA,1,"no-go","","hsam_q2","self-first"
"CNTRL08","CTRL",108,0.3334,1,"go","l","hsam_q2","self-first"
"CNTRL08","CTRL",109,0.3976,1,"go","l","hsam_q2","self-first"
"CNTRL08","CTRL",110,NA,1,"no-go","","hsam_q2","self-first"
"CNTRL08","CTRL",111,NA,1,"no-go","","hsam_q2","self-first"
"CNTRL08","CTRL",112,0.4726,1,"go","a","hsam_q2","self-first"
"CNTRL08","CTRL",113,0.4976,1,"go","a","hsam_q2","self-first"
"CNTRL08","CTRL",114,0.3851,1,"go","l","hsam_q2","self-first"
"CNTRL08","CTRL",115,NA,1,"no-go","","hsam_q2","self-first"
"CNTRL08","CTRL",116,0.37,1,"go","a","hsam_q2","self-first"
"CNTRL08","CTRL",117,NA,1,"no-go","","hsam_q2","self-first"
"CNTRL08","CTRL",118,0.388,1,"go","a","hsam_q2","self-first"
"CNTRL08","CTRL",119,0.3833,1,"go","l","hsam_q2","self-first"
"CNTRL08","CTRL",120,NA,1,"no-go","","hsam_q2","self-first"
"CNTRL08","CTRL",121,NA,1,"no-go","","hsam_q2","self-first"
"CNTRL08","CTRL",122,NA,1,"no-go","","hsam_q2","self-first"
"CNTRL08","CTRL",123,0.5033,1,"go","a","hsam_q2","self-first"
"CNTRL08","CTRL",124,0.4176,1,"go","l","hsam_q2","self-first"
"CNTRL08","CTRL",125,0.3745,1,"go","a","hsam_q2","self-first"
"CNTRL08","CTRL",126,0.4213,1,"go","a","hsam_q2","self-first"
"CNTRL08","CTRL",127,NA,1,"no-go","","hsam_q2","self-first"
"CNTRL08","CTRL",128,NA,1,"no-go","","hsam_q2","self-first"
"CNTRL08","CTRL",129,NA,1,"no-go","","hsam_q2","self-first"
"CNTRL08","CTRL",130,0.3801,1,"go","l","hsam_q2","self-first"
"CNTRL08","CTRL",131,0.7132,1,"go","a","hsam_q2","self-first"
"CNTRL08","CTRL",132,NA,1,"no-go","","hsam_q2","self-first"
"CNTRL08","CTRL",133,0.465,1,"go","l","hsam_q2","self-first"
"CNTRL08","CTRL",134,NA,1,"no-go","","hsam_q2","self-first"
"CNTRL08","CTRL",135,NA,1,"no-go","","hsam_q2","self-first"
"CNTRL08","CTRL",136,0.4187,1,"go","a","hsam_q2","self-first"
"CNTRL08","CTRL",137,0.449,1,"go","a","hsam_q2","self-first"
"CNTRL08","CTRL",138,0.572,0,"no-go","a","hsam_q2","self-first"
"CNTRL08","CTRL",139,NA,1,"no-go","","hsam_q2","self-first"
"CNTRL08","CTRL",140,0.4151,1,"go","l","hsam_q2","self-first"
"CNTRL08","CTRL",141,NA,1,"no-go","","hsam_q2","self-first"
"CNTRL08","CTRL",142,0.3482,1,"go","a","hsam_q2","self-first"
"CNTRL08","CTRL",143,0.4284,1,"go","a","hsam_q2","self-first"
"CNTRL08","CTRL",144,NA,1,"no-go","","hsam_q2","self-first"
"CNTRL08","CTRL",145,0.5099,1,"go","l","hsam_q2","self-first"
"CNTRL08","CTRL",146,NA,1,"no-go","","hsam_q2","self-first"
"CNTRL08","CTRL",147,NA,1,"no-go","","hsam_q2","self-first"
"CNTRL08","CTRL",148,NA,1,"no-go","","hsam_q2","self-first"
"CNTRL08","CTRL",149,0.479,1,"go","l","hsam_q2","self-first"
"CNTRL08","CTRL",150,NA,1,"no-go","","hsam_q2","self-first"
"CNTRL08","CTRL",151,0.3917,1,"go","a","hsam_q2","self-first"
"CNTRL08","CTRL",152,0.4027,1,"go","a","hsam_q2","self-first"
"CNTRL08","CTRL",153,0.3813,1,"go","a","hsam_q2","self-first"
"CNTRL08","CTRL",154,NA,1,"no-go","","hsam_q2","self-first"
"CNTRL08","CTRL",155,NA,1,"no-go","","hsam_q2","self-first"
"CNTRL08","CTRL",156,0.3141,1,"go","a","hsam_q2","self-first"
"CNTRL08","CTRL",157,NA,1,"no-go","","hsam_q2","self-first"
"CNTRL08","CTRL",158,NA,1,"no-go","","hsam_q2","self-first"
"CNTRL08","CTRL",159,NA,1,"no-go","","hsam_q2","self-first"
"CNTRL08","CTRL",160,0.4779,1,"go","l","hsam_q2","self-first"
"CNTRL08","CTRL",161,0.4468,1,"go","l","hsam_q2","self-first"
"CNTRL08","CTRL",162,NA,1,"no-go","","hsam_q2","self-first"
"CNTRL08","CTRL",163,0.4382,1,"go","l","hsam_q2","self-first"
"CNTRL08","CTRL",164,0.438,1,"go","l","hsam_q2","self-first"
"CNTRL08","CTRL",165,0.4031,1,"go","l","hsam_q2","self-first"
"CNTRL08","CTRL",166,0.361,1,"go","l","hsam_q2","self-first"
"CNTRL08","CTRL",167,0.3572,1,"go","a","hsam_q2","self-first"
"CNTRL08","CTRL",168,NA,1,"no-go","","hsam_q2","self-first"
"CNTRL08","CTRL",169,0.3659,1,"go","l","hsam_q2","self-first"
"CNTRL08","CTRL",170,0.4514,1,"go","a","hsam_q2","self-first"
"CNTRL08","CTRL",171,NA,1,"no-go","","hsam_q2","self-first"
"CNTRL08","CTRL",172,0.4447,1,"go","l","hsam_q2","self-first"
"CNTRL08","CTRL",173,0.3888,1,"go","l","hsam_q2","self-first"
"CNTRL08","CTRL",174,NA,1,"no-go","","hsam_q2","self-first"
"CNTRL08","CTRL",175,0.4113,1,"go","l","hsam_q2","self-first"
"CNTRL08","CTRL",176,NA,1,"no-go","","hsam_q2","self-first"
"CNTRL08","CTRL",177,NA,1,"no-go","","hsam_q2","self-first"
"CNTRL08","CTRL",178,0.4375,1,"go","a","hsam_q2","self-first"
"CNTRL08","CTRL",179,NA,1,"no-go","","hsam_q2","self-first"
"CNTRL08","CTRL",180,0.3728,1,"go","l","hsam_q2","self-first"
"CNTRL08","CTRL",181,NA,1,"no-go","","hsam_q2","self-first"
"CNTRL08","CTRL",182,0.5067,1,"go","a","hsam_q2","self-first"
"CNTRL08","CTRL",183,NA,1,"no-go","","hsam_q2","self-first"
"CNTRL08","CTRL",184,0.3962,1,"go","a","hsam_q2","self-first"
"CNTRL08","CTRL",185,NA,1,"no-go","","hsam_q2","self-first"
"CNTRL08","CTRL",186,0.4024,1,"go","a","hsam_q2","self-first"
"CNTRL08","CTRL",187,0.3913,1,"go","a","hsam_q2","self-first"
"CNTRL08","CTRL",188,0.6095,1,"go","l","hsam_q2","self-first"
"CNTRL08","CTRL",189,NA,1,"no-go","","hsam_q2","self-first"
"CNTRL08","CTRL",190,NA,1,"no-go","","hsam_q2","self-first"
"CNTRL08","CTRL",191,NA,1,"no-go","","hsam_q2","self-first"
"CNTRL08","CTRL",192,NA,1,"no-go","","hsam_q2","self-first"
"CNTRL08","CTRL",193,0.5444,1,"go","a","hsam_q2","self-first"
"CNTRL08","CTRL",194,NA,1,"no-go","","hsam_q2","self-first"
"CNTRL08","CTRL",195,NA,1,"no-go","","hsam_q2","self-first"
"CNTRL08","CTRL",196,NA,1,"no-go","","hsam_q2","self-first"
"CNTRL08","CTRL",197,0.4239,1,"go","l","hsam_q2","self-first"
"CNTRL08","CTRL",198,NA,1,"no-go","","hsam_q2","self-first"
"CNTRL08","CTRL",199,NA,1,"no-go","","hsam_q2","self-first"
"CNTRL08","CTRL",200,0.3376,1,"go","a","hsam_q2","self-first"
"CNTRL09","CTRL",1,NA,0,"go","","hsam_t2","other-first"
"CNTRL09","CTRL",2,NA,1,"no-go","","hsam_t2","other-first"
"CNTRL09","CTRL",3,0.5457,1,"go","l","hsam_t2","other-first"
"CNTRL09","CTRL",4,NA,1,"no-go","","hsam_t2","other-first"
"CNTRL09","CTRL",5,NA,1,"no-go","","hsam_t2","other-first"
"CNTRL09","CTRL",6,NA,1,"no-go","","hsam_t2","other-first"
"CNTRL09","CTRL",7,0.5111,1,"go","a","hsam_t2","other-first"
"CNTRL09","CTRL",8,NA,1,"no-go","","hsam_t2","other-first"
"CNTRL09","CTRL",9,NA,1,"no-go","","hsam_t2","other-first"
"CNTRL09","CTRL",10,0.4387,1,"go","a","hsam_t2","other-first"
"CNTRL09","CTRL",11,NA,1,"no-go","","hsam_t2","other-first"
"CNTRL09","CTRL",12,0.3982,1,"go","l","hsam_t2","other-first"
"CNTRL09","CTRL",13,0.2761,1,"go","l","hsam_t2","other-first"
"CNTRL09","CTRL",14,NA,1,"no-go","","hsam_t2","other-first"
"CNTRL09","CTRL",15,0.3343,1,"go","l","hsam_t2","other-first"
"CNTRL09","CTRL",16,NA,1,"no-go","","hsam_t2","other-first"
"CNTRL09","CTRL",17,0.4187,1,"go","a","hsam_t2","other-first"
"CNTRL09","CTRL",18,0.5411,1,"go","l","hsam_t2","other-first"
"CNTRL09","CTRL",19,NA,1,"no-go","","hsam_t2","other-first"
"CNTRL09","CTRL",20,0.5065,0,"no-go","a","hsam_t2","other-first"
"CNTRL09","CTRL",21,NA,1,"no-go","","hsam_t2","other-first"
"CNTRL09","CTRL",22,0.4518,1,"go","l","hsam_t2","other-first"
"CNTRL09","CTRL",23,NA,1,"no-go","","hsam_t2","other-first"
"CNTRL09","CTRL",24,0.4386,1,"go","a","hsam_t2","other-first"
"CNTRL09","CTRL",25,NA,1,"no-go","","hsam_t2","other-first"
"CNTRL09","CTRL",26,0.3767,1,"go","l","hsam_t2","other-first"
"CNTRL09","CTRL",27,NA,1,"no-go","","hsam_t2","other-first"
"CNTRL09","CTRL",28,0.4692,1,"go","a","hsam_t2","other-first"
"CNTRL09","CTRL",29,NA,1,"no-go","","hsam_t2","other-first"
"CNTRL09","CTRL",30,NA,1,"no-go","","hsam_t2","other-first"
"CNTRL09","CTRL",31,NA,1,"no-go","","hsam_t2","other-first"
"CNTRL09","CTRL",32,0.4257,0,"go","a","hsam_t2","other-first"
"CNTRL09","CTRL",33,0.5005,1,"go","a","hsam_t2","other-first"
"CNTRL09","CTRL",34,NA,1,"no-go","","hsam_t2","other-first"
"CNTRL09","CTRL",35,0.5238,1,"go","a","hsam_t2","other-first"
"CNTRL09","CTRL",36,0.5089,1,"go","a","hsam_t2","other-first"
"CNTRL09","CTRL",37,NA,1,"no-go","","hsam_t2","other-first"
"CNTRL09","CTRL",38,0.489,1,"go","a","hsam_t2","other-first"
"CNTRL09","CTRL",39,NA,1,"no-go","","hsam_t2","other-first"
"CNTRL09","CTRL",40,NA,1,"no-go","","hsam_t2","other-first"
"CNTRL09","CTRL",41,0.3875,1,"go","a","hsam_t2","other-first"
"CNTRL09","CTRL",42,0.4196,1,"go","l","hsam_t2","other-first"
"CNTRL09","CTRL",43,NA,1,"no-go","","hsam_t2","other-first"
"CNTRL09","CTRL",44,0.3885,1,"go","a","hsam_t2","other-first"
"CNTRL09","CTRL",45,0.3629,1,"go","l","hsam_t2","other-first"
"CNTRL09","CTRL",46,0.4082,1,"go","a","hsam_t2","other-first"
"CNTRL09","CTRL",47,0.3462,1,"go","l","hsam_t2","other-first"
"CNTRL09","CTRL",48,NA,1,"no-go","","hsam_t2","other-first"
"CNTRL09","CTRL",49,NA,1,"no-go","","hsam_t2","other-first"
"CNTRL09","CTRL",50,NA,1,"no-go","","hsam_t2","other-first"
"CNTRL09","CTRL",51,NA,1,"no-go","","hsam_t2","other-first"
"CNTRL09","CTRL",52,0.5218,0,"no-go","l","hsam_t2","other-first"
"CNTRL09","CTRL",53,0.4728,1,"go","a","hsam_t2","other-first"
"CNTRL09","CTRL",54,NA,1,"no-go","","hsam_t2","other-first"
"CNTRL09","CTRL",55,NA,1,"no-go","","hsam_t2","other-first"
"CNTRL09","CTRL",56,0.4722,1,"go","l","hsam_t2","other-first"
"CNTRL09","CTRL",57,NA,1,"no-go","","hsam_t2","other-first"
"CNTRL09","CTRL",58,0.4056,1,"go","a","hsam_t2","other-first"
"CNTRL09","CTRL",59,NA,1,"no-go","","hsam_t2","other-first"
"CNTRL09","CTRL",60,NA,1,"no-go","","hsam_t2","other-first"
"CNTRL09","CTRL",61,NA,1,"no-go","","hsam_t2","other-first"
"CNTRL09","CTRL",62,0.4056,1,"go","a","hsam_t2","other-first"
"CNTRL09","CTRL",63,NA,1,"no-go","","hsam_t2","other-first"
"CNTRL09","CTRL",64,NA,1,"no-go","","hsam_t2","other-first"
"CNTRL09","CTRL",65,NA,1,"no-go","","hsam_t2","other-first"
"CNTRL09","CTRL",66,0.5023,1,"go","a","hsam_t2","other-first"
"CNTRL09","CTRL",67,NA,1,"no-go","","hsam_t2","other-first"
"CNTRL09","CTRL",68,0.4445,1,"go","l","hsam_t2","other-first"
"CNTRL09","CTRL",69,0.429,1,"go","l","hsam_t2","other-first"
"CNTRL09","CTRL",70,0.4642,1,"go","a","hsam_t2","other-first"
"CNTRL09","CTRL",71,NA,1,"no-go","","hsam_t2","other-first"
"CNTRL09","CTRL",72,0.3346,1,"go","l","hsam_t2","other-first"
"CNTRL09","CTRL",73,0.5686,1,"go","a","hsam_t2","other-first"
"CNTRL09","CTRL",74,0.4149,1,"go","l","hsam_t2","other-first"
"CNTRL09","CTRL",75,0.3008,1,"go","l","hsam_t2","other-first"
"CNTRL09","CTRL",76,0.268,0,"go","l","hsam_t2","other-first"
"CNTRL09","CTRL",77,0.513,1,"go","a","hsam_t2","other-first"
"CNTRL09","CTRL",78,0.6012,1,"go","a","hsam_t2","other-first"
"CNTRL09","CTRL",79,NA,1,"no-go","","hsam_t2","other-first"
"CNTRL09","CTRL",80,0.5243,1,"go","l","hsam_t2","other-first"
"CNTRL09","CTRL",81,NA,1,"no-go","","hsam_t2","other-first"
"CNTRL09","CTRL",82,NA,1,"no-go","","hsam_t2","other-first"
"CNTRL09","CTRL",83,0.4184,1,"go","l","hsam_t2","other-first"
"CNTRL09","CTRL",84,0.4786,1,"go","a","hsam_t2","other-first"
"CNTRL09","CTRL",85,NA,1,"no-go","","hsam_t2","other-first"
"CNTRL09","CTRL",86,0.4368,1,"go","a","hsam_t2","other-first"
"CNTRL09","CTRL",87,0.4851,1,"go","l","hsam_t2","other-first"
"CNTRL09","CTRL",88,0.4351,1,"go","a","hsam_t2","other-first"
"CNTRL09","CTRL",89,NA,1,"no-go","","hsam_t2","other-first"
"CNTRL09","CTRL",90,NA,1,"no-go","","hsam_t2","other-first"
"CNTRL09","CTRL",91,NA,1,"no-go","","hsam_t2","other-first"
"CNTRL09","CTRL",92,NA,1,"no-go","","hsam_t2","other-first"
"CNTRL09","CTRL",93,0.488,1,"go","a","hsam_t2","other-first"
"CNTRL09","CTRL",94,NA,1,"no-go","","hsam_t2","other-first"
"CNTRL09","CTRL",95,NA,1,"no-go","","hsam_t2","other-first"
"CNTRL09","CTRL",96,0.4271,1,"go","l","hsam_t2","other-first"
"CNTRL09","CTRL",97,0.3426,1,"go","l","hsam_t2","other-first"
"CNTRL09","CTRL",98,0.2972,1,"go","l","hsam_t2","other-first"
"CNTRL09","CTRL",99,0.4408,1,"go","l","hsam_t2","other-first"
"CNTRL09","CTRL",100,NA,1,"no-go","","hsam_t2","other-first"
"CNTRL09","CTRL",101,NA,1,"no-go","","hsam_t2","self-first"
"CNTRL09","CTRL",102,0.5146,1,"go","l","hsam_t2","self-first"
"CNTRL09","CTRL",103,NA,1,"no-go","","hsam_t2","self-first"
"CNTRL09","CTRL",104,0.592,1,"go","l","hsam_t2","self-first"
"CNTRL09","CTRL",105,NA,1,"no-go","","hsam_t2","self-first"
"CNTRL09","CTRL",106,0.5814,1,"go","a","hsam_t2","self-first"
"CNTRL09","CTRL",107,0.4064,1,"go","l","hsam_t2","self-first"
"CNTRL09","CTRL",108,0.4539,1,"go","a","hsam_t2","self-first"
"CNTRL09","CTRL",109,0.4052,1,"go","a","hsam_t2","self-first"
"CNTRL09","CTRL",110,0.5155,1,"go","a","hsam_t2","self-first"
"CNTRL09","CTRL",111,0.4621,1,"go","a","hsam_t2","self-first"
"CNTRL09","CTRL",112,0.5411,0,"no-go","a","hsam_t2","self-first"
"CNTRL09","CTRL",113,0.4351,1,"go","l","hsam_t2","self-first"
"CNTRL09","CTRL",114,NA,1,"no-go","","hsam_t2","self-first"
"CNTRL09","CTRL",115,NA,1,"no-go","","hsam_t2","self-first"
"CNTRL09","CTRL",116,0.4783,1,"go","l","hsam_t2","self-first"
"CNTRL09","CTRL",117,0.4758,1,"go","l","hsam_t2","self-first"
"CNTRL09","CTRL",118,0.4521,0,"no-go","l","hsam_t2","self-first"
"CNTRL09","CTRL",119,0.4483,1,"go","l","hsam_t2","self-first"
"CNTRL09","CTRL",120,0.4281,1,"go","l","hsam_t2","self-first"
"CNTRL09","CTRL",121,0.3704,1,"go","l","hsam_t2","self-first"
"CNTRL09","CTRL",122,NA,1,"no-go","","hsam_t2","self-first"
"CNTRL09","CTRL",123,NA,1,"no-go","","hsam_t2","self-first"
"CNTRL09","CTRL",124,NA,1,"no-go","","hsam_t2","self-first"
"CNTRL09","CTRL",125,0.4258,1,"go","a","hsam_t2","self-first"
"CNTRL09","CTRL",126,NA,1,"no-go","","hsam_t2","self-first"
"CNTRL09","CTRL",127,NA,1,"no-go","","hsam_t2","self-first"
"CNTRL09","CTRL",128,NA,1,"no-go","","hsam_t2","self-first"
"CNTRL09","CTRL",129,0.3813,1,"go","a","hsam_t2","self-first"
"CNTRL09","CTRL",130,NA,1,"no-go","","hsam_t2","self-first"
"CNTRL09","CTRL",131,0.3847,1,"go","a","hsam_t2","self-first"
"CNTRL09","CTRL",132,NA,1,"no-go","","hsam_t2","self-first"
"CNTRL09","CTRL",133,NA,1,"no-go","","hsam_t2","self-first"
"CNTRL09","CTRL",134,NA,1,"no-go","","hsam_t2","self-first"
"CNTRL09","CTRL",135,0.3507,1,"go","a","hsam_t2","self-first"
"CNTRL09","CTRL",136,0.345,1,"go","a","hsam_t2","self-first"
"CNTRL09","CTRL",137,NA,1,"no-go","","hsam_t2","self-first"
"CNTRL09","CTRL",138,NA,1,"no-go","","hsam_t2","self-first"
"CNTRL09","CTRL",139,0.4641,0,"no-go","a","hsam_t2","self-first"
"CNTRL09","CTRL",140,0.4375,1,"go","a","hsam_t2","self-first"
"CNTRL09","CTRL",141,0.4579,1,"go","l","hsam_t2","self-first"
"CNTRL09","CTRL",142,0.4464,1,"go","a","hsam_t2","self-first"
"CNTRL09","CTRL",143,NA,1,"no-go","","hsam_t2","self-first"
"CNTRL09","CTRL",144,0.4609,1,"go","l","hsam_t2","self-first"
"CNTRL09","CTRL",145,NA,1,"no-go","","hsam_t2","self-first"
"CNTRL09","CTRL",146,0.5508,1,"go","a","hsam_t2","self-first"
"CNTRL09","CTRL",147,NA,1,"no-go","","hsam_t2","self-first"
"CNTRL09","CTRL",148,0.578,1,"go","a","hsam_t2","self-first"
"CNTRL09","CTRL",149,0.4961,1,"go","l","hsam_t2","self-first"
"CNTRL09","CTRL",150,NA,1,"no-go","","hsam_t2","self-first"
"CNTRL09","CTRL",151,NA,1,"no-go","","hsam_t2","self-first"
"CNTRL09","CTRL",152,0.6312,1,"go","a","hsam_t2","self-first"
"CNTRL09","CTRL",153,NA,1,"no-go","","hsam_t2","self-first"
"CNTRL09","CTRL",154,0.4534,1,"go","l","hsam_t2","self-first"
"CNTRL09","CTRL",155,0.3357,1,"go","l","hsam_t2","self-first"
"CNTRL09","CTRL",156,0.5295,1,"go","a","hsam_t2","self-first"
"CNTRL09","CTRL",157,0.3684,1,"go","a","hsam_t2","self-first"
"CNTRL09","CTRL",158,NA,1,"no-go","","hsam_t2","self-first"
"CNTRL09","CTRL",159,0.4321,1,"go","l","hsam_t2","self-first"
"CNTRL09","CTRL",160,NA,1,"no-go","","hsam_t2","self-first"
"CNTRL09","CTRL",161,0.4537,1,"go","a","hsam_t2","self-first"
"CNTRL09","CTRL",162,NA,1,"no-go","","hsam_t2","self-first"
"CNTRL09","CTRL",163,NA,1,"no-go","","hsam_t2","self-first"
"CNTRL09","CTRL",164,NA,1,"no-go","","hsam_t2","self-first"
"CNTRL09","CTRL",165,0.4003,1,"go","a","hsam_t2","self-first"
"CNTRL09","CTRL",166,NA,1,"no-go","","hsam_t2","self-first"
"CNTRL09","CTRL",167,NA,1,"no-go","","hsam_t2","self-first"
"CNTRL09","CTRL",168,0.4962,1,"go","l","hsam_t2","self-first"
"CNTRL09","CTRL",169,0.4838,1,"go","l","hsam_t2","self-first"
"CNTRL09","CTRL",170,0.4265,1,"go","l","hsam_t2","self-first"
"CNTRL09","CTRL",171,NA,1,"no-go","","hsam_t2","self-first"
"CNTRL09","CTRL",172,NA,1,"no-go","","hsam_t2","self-first"
"CNTRL09","CTRL",173,NA,1,"no-go","","hsam_t2","self-first"
"CNTRL09","CTRL",174,NA,1,"no-go","","hsam_t2","self-first"
"CNTRL09","CTRL",175,0.3823,1,"go","l","hsam_t2","self-first"
"CNTRL09","CTRL",176,0.5007,1,"go","a","hsam_t2","self-first"
"CNTRL09","CTRL",177,0.3756,1,"go","l","hsam_t2","self-first"
"CNTRL09","CTRL",178,NA,1,"no-go","","hsam_t2","self-first"
"CNTRL09","CTRL",179,NA,1,"no-go","","hsam_t2","self-first"
"CNTRL09","CTRL",180,NA,1,"no-go","","hsam_t2","self-first"
"CNTRL09","CTRL",181,NA,1,"no-go","","hsam_t2","self-first"
"CNTRL09","CTRL",182,NA,1,"no-go","","hsam_t2","self-first"
"CNTRL09","CTRL",183,NA,1,"no-go","","hsam_t2","self-first"
"CNTRL09","CTRL",184,0.3826,1,"go","l","hsam_t2","self-first"
"CNTRL09","CTRL",185,0.448,1,"go","a","hsam_t2","self-first"
"CNTRL09","CTRL",186,NA,1,"no-go","","hsam_t2","self-first"
"CNTRL09","CTRL",187,0.5049,1,"go","a","hsam_t2","self-first"
"CNTRL09","CTRL",188,NA,1,"no-go","","hsam_t2","self-first"
"CNTRL09","CTRL",189,0.4715,1,"go","a","hsam_t2","self-first"
"CNTRL09","CTRL",190,NA,1,"no-go","","hsam_t2","self-first"
"CNTRL09","CTRL",191,0.4223,1,"go","a","hsam_t2","self-first"
"CNTRL09","CTRL",192,0.4124,1,"go","l","hsam_t2","self-first"
"CNTRL09","CTRL",193,0.2981,1,"go","l","hsam_t2","self-first"
"CNTRL09","CTRL",194,0.4401,1,"go","a","hsam_t2","self-first"
"CNTRL09","CTRL",195,NA,1,"no-go","","hsam_t2","self-first"
"CNTRL09","CTRL",196,0.5167,1,"go","l","hsam_t2","self-first"
"CNTRL09","CTRL",197,0.2592,1,"go","l","hsam_t2","self-first"
"CNTRL09","CTRL",198,NA,1,"no-go","","hsam_t2","self-first"
"CNTRL09","CTRL",199,NA,1,"no-go","","hsam_t2","self-first"
"CNTRL09","CTRL",200,NA,1,"no-go","","hsam_t2","self-first"
"CNTRL10","CTRL",1,NA,1,"no-go","","hsam_q2","other-first"
"CNTRL10","CTRL",2,NA,1,"no-go","","hsam_q2","other-first"
"CNTRL10","CTRL",3,NA,1,"no-go","","hsam_q2","other-first"
"CNTRL10","CTRL",4,NA,1,"no-go","","hsam_q2","other-first"
"CNTRL10","CTRL",5,NA,1,"no-go","","hsam_q2","other-first"
"CNTRL10","CTRL",6,0.6547,1,"go","l","hsam_q2","other-first"
"CNTRL10","CTRL",7,0.8663,1,"go","l","hsam_q2","other-first"
"CNTRL10","CTRL",8,0.6907,1,"go","l","hsam_q2","other-first"
"CNTRL10","CTRL",9,0.5353,1,"go","l","hsam_q2","other-first"
"CNTRL10","CTRL",10,NA,1,"no-go","","hsam_q2","other-first"
"CNTRL10","CTRL",11,0.585,1,"go","l","hsam_q2","other-first"
"CNTRL10","CTRL",12,0.4613,1,"go","l","hsam_q2","other-first"
"CNTRL10","CTRL",13,NA,1,"no-go","","hsam_q2","other-first"
"CNTRL10","CTRL",14,0.5862,1,"go","a","hsam_q2","other-first"
"CNTRL10","CTRL",15,NA,1,"no-go","","hsam_q2","other-first"
"CNTRL10","CTRL",16,0.5747,1,"go","l","hsam_q2","other-first"
"CNTRL10","CTRL",17,NA,1,"no-go","","hsam_q2","other-first"
"CNTRL10","CTRL",18,0.5569,1,"go","a","hsam_q2","other-first"
"CNTRL10","CTRL",19,0.7191,1,"go","l","hsam_q2","other-first"
"CNTRL10","CTRL",20,0.586,1,"go","l","hsam_q2","other-first"
"CNTRL10","CTRL",21,NA,1,"no-go","","hsam_q2","other-first"
"CNTRL10","CTRL",22,NA,1,"no-go","","hsam_q2","other-first"
"CNTRL10","CTRL",23,0.5075,1,"go","l","hsam_q2","other-first"
"CNTRL10","CTRL",24,0.5503,1,"go","a","hsam_q2","other-first"
"CNTRL10","CTRL",25,0.4174,1,"go","a","hsam_q2","other-first"
"CNTRL10","CTRL",26,0.3503,1,"go","a","hsam_q2","other-first"
"CNTRL10","CTRL",27,0.4846,1,"go","a","hsam_q2","other-first"
"CNTRL10","CTRL",28,0.4672,1,"go","l","hsam_q2","other-first"
"CNTRL10","CTRL",29,NA,1,"no-go","","hsam_q2","other-first"
"CNTRL10","CTRL",30,NA,1,"no-go","","hsam_q2","other-first"
"CNTRL10","CTRL",31,NA,1,"no-go","","hsam_q2","other-first"
"CNTRL10","CTRL",32,0.5519,1,"go","l","hsam_q2","other-first"
"CNTRL10","CTRL",33,NA,1,"no-go","","hsam_q2","other-first"
"CNTRL10","CTRL",34,0.5213,1,"go","a","hsam_q2","other-first"
"CNTRL10","CTRL",35,NA,1,"no-go","","hsam_q2","other-first"
"CNTRL10","CTRL",36,NA,1,"no-go","","hsam_q2","other-first"
"CNTRL10","CTRL",37,0.6254,1,"go","a","hsam_q2","other-first"
"CNTRL10","CTRL",38,0.3992,1,"go","a","hsam_q2","other-first"
"CNTRL10","CTRL",39,NA,1,"no-go","","hsam_q2","other-first"
"CNTRL10","CTRL",40,NA,1,"no-go","","hsam_q2","other-first"
"CNTRL10","CTRL",41,NA,1,"no-go","","hsam_q2","other-first"
"CNTRL10","CTRL",42,0.5343,1,"go","a","hsam_q2","other-first"
"CNTRL10","CTRL",43,NA,1,"no-go","","hsam_q2","other-first"
"CNTRL10","CTRL",44,0.609,1,"go","a","hsam_q2","other-first"
"CNTRL10","CTRL",45,NA,1,"no-go","","hsam_q2","other-first"
"CNTRL10","CTRL",46,0.5184,1,"go","l","hsam_q2","other-first"
"CNTRL10","CTRL",47,0.444,1,"go","a","hsam_q2","other-first"
"CNTRL10","CTRL",48,NA,1,"no-go","","hsam_q2","other-first"
"CNTRL10","CTRL",49,0.4011,1,"go","l","hsam_q2","other-first"
"CNTRL10","CTRL",50,0.4073,1,"go","l","hsam_q2","other-first"
"CNTRL10","CTRL",51,0.5498,1,"go","a","hsam_q2","other-first"
"CNTRL10","CTRL",52,NA,1,"no-go","","hsam_q2","other-first"
"CNTRL10","CTRL",53,0.5957,1,"go","a","hsam_q2","other-first"
"CNTRL10","CTRL",54,0.434,1,"go","l","hsam_q2","other-first"
"CNTRL10","CTRL",55,0.4082,1,"go","l","hsam_q2","other-first"
"CNTRL10","CTRL",56,0.5891,0,"no-go","a","hsam_q2","other-first"
"CNTRL10","CTRL",57,NA,1,"no-go","","hsam_q2","other-first"
"CNTRL10","CTRL",58,0.5863,1,"go","a","hsam_q2","other-first"
"CNTRL10","CTRL",59,NA,1,"no-go","","hsam_q2","other-first"
"CNTRL10","CTRL",60,0.4372,1,"go","l","hsam_q2","other-first"
"CNTRL10","CTRL",61,0.5428,1,"go","a","hsam_q2","other-first"
"CNTRL10","CTRL",62,NA,1,"no-go","","hsam_q2","other-first"
"CNTRL10","CTRL",63,NA,1,"no-go","","hsam_q2","other-first"
"CNTRL10","CTRL",64,0.5501,1,"go","a","hsam_q2","other-first"
"CNTRL10","CTRL",65,0.5012,1,"go","l","hsam_q2","other-first"
"CNTRL10","CTRL",66,NA,1,"no-go","","hsam_q2","other-first"
"CNTRL10","CTRL",67,NA,1,"no-go","","hsam_q2","other-first"
"CNTRL10","CTRL",68,NA,1,"no-go","","hsam_q2","other-first"
"CNTRL10","CTRL",69,0.4497,1,"go","a","hsam_q2","other-first"
"CNTRL10","CTRL",70,NA,1,"no-go","","hsam_q2","other-first"
"CNTRL10","CTRL",71,NA,1,"no-go","","hsam_q2","other-first"
"CNTRL10","CTRL",72,0.4745,1,"go","l","hsam_q2","other-first"
"CNTRL10","CTRL",73,0.4739,1,"go","a","hsam_q2","other-first"
"CNTRL10","CTRL",74,NA,1,"no-go","","hsam_q2","other-first"
"CNTRL10","CTRL",75,NA,1,"no-go","","hsam_q2","other-first"
"CNTRL10","CTRL",76,0.495,1,"go","a","hsam_q2","other-first"
"CNTRL10","CTRL",77,0.3016,0,"go","l","hsam_q2","other-first"
"CNTRL10","CTRL",78,0.4172,1,"go","l","hsam_q2","other-first"
"CNTRL10","CTRL",79,0.4017,1,"go","a","hsam_q2","other-first"
"CNTRL10","CTRL",80,NA,1,"no-go","","hsam_q2","other-first"
"CNTRL10","CTRL",81,NA,1,"no-go","","hsam_q2","other-first"
"CNTRL10","CTRL",82,0.5017,1,"go","a","hsam_q2","other-first"
"CNTRL10","CTRL",83,NA,1,"no-go","","hsam_q2","other-first"
"CNTRL10","CTRL",84,0.4835,1,"go","a","hsam_q2","other-first"
"CNTRL10","CTRL",85,NA,1,"no-go","","hsam_q2","other-first"
"CNTRL10","CTRL",86,NA,1,"no-go","","hsam_q2","other-first"
"CNTRL10","CTRL",87,NA,1,"no-go","","hsam_q2","other-first"
"CNTRL10","CTRL",88,NA,1,"no-go","","hsam_q2","other-first"
"CNTRL10","CTRL",89,0.4579,1,"go","l","hsam_q2","other-first"
"CNTRL10","CTRL",90,NA,1,"no-go","","hsam_q2","other-first"
"CNTRL10","CTRL",91,0.478,1,"go","a","hsam_q2","other-first"
"CNTRL10","CTRL",92,0.3883,1,"go","l","hsam_q2","other-first"
"CNTRL10","CTRL",93,0.3388,1,"go","l","hsam_q2","other-first"
"CNTRL10","CTRL",94,NA,1,"no-go","","hsam_q2","other-first"
"CNTRL10","CTRL",95,NA,1,"no-go","","hsam_q2","other-first"
"CNTRL10","CTRL",96,0.4665,1,"go","l","hsam_q2","other-first"
"CNTRL10","CTRL",97,NA,1,"no-go","","hsam_q2","other-first"
"CNTRL10","CTRL",98,NA,1,"no-go","","hsam_q2","other-first"
"CNTRL10","CTRL",99,NA,1,"no-go","","hsam_q2","other-first"
"CNTRL10","CTRL",100,NA,1,"no-go","","hsam_q2","other-first"
"CNTRL10","CTRL",101,0.553,1,"go","l","hsam_q2","self-first"
"CNTRL10","CTRL",102,0.4715,1,"go","a","hsam_q2","self-first"
"CNTRL10","CTRL",103,NA,1,"no-go","","hsam_q2","self-first"
"CNTRL10","CTRL",104,0.5411,1,"go","a","hsam_q2","self-first"
"CNTRL10","CTRL",105,NA,1,"no-go","","hsam_q2","self-first"
"CNTRL10","CTRL",106,NA,1,"no-go","","hsam_q2","self-first"
"CNTRL10","CTRL",107,0.664,1,"go","a","hsam_q2","self-first"
"CNTRL10","CTRL",108,0.651,1,"go","a","hsam_q2","self-first"
"CNTRL10","CTRL",109,NA,1,"no-go","","hsam_q2","self-first"
"CNTRL10","CTRL",110,NA,1,"no-go","","hsam_q2","self-first"
"CNTRL10","CTRL",111,0.5058,1,"go","a","hsam_q2","self-first"
"CNTRL10","CTRL",112,NA,1,"no-go","","hsam_q2","self-first"
"CNTRL10","CTRL",113,0.468,1,"go","l","hsam_q2","self-first"
"CNTRL10","CTRL",114,NA,1,"no-go","","hsam_q2","self-first"
"CNTRL10","CTRL",115,NA,1,"no-go","","hsam_q2","self-first"
"CNTRL10","CTRL",116,0.5338,1,"go","a","hsam_q2","self-first"
"CNTRL10","CTRL",117,NA,1,"no-go","","hsam_q2","self-first"
"CNTRL10","CTRL",118,NA,1,"no-go","","hsam_q2","self-first"
"CNTRL10","CTRL",119,0.5412,1,"go","a","hsam_q2","self-first"
"CNTRL10","CTRL",120,NA,1,"no-go","","hsam_q2","self-first"
"CNTRL10","CTRL",121,NA,1,"no-go","","hsam_q2","self-first"
"CNTRL10","CTRL",122,NA,1,"no-go","","hsam_q2","self-first"
"CNTRL10","CTRL",123,NA,1,"no-go","","hsam_q2","self-first"
"CNTRL10","CTRL",124,0.5005,1,"go","a","hsam_q2","self-first"
"CNTRL10","CTRL",125,NA,1,"no-go","","hsam_q2","self-first"
"CNTRL10","CTRL",126,NA,1,"no-go","","hsam_q2","self-first"
"CNTRL10","CTRL",127,0.6403,1,"go","l","hsam_q2","self-first"
"CNTRL10","CTRL",128,NA,1,"no-go","","hsam_q2","self-first"
"CNTRL10","CTRL",129,NA,1,"no-go","","hsam_q2","self-first"
"CNTRL10","CTRL",130,NA,1,"no-go","","hsam_q2","self-first"
"CNTRL10","CTRL",131,0.4727,1,"go","l","hsam_q2","self-first"
"CNTRL10","CTRL",132,NA,1,"no-go","","hsam_q2","self-first"
"CNTRL10","CTRL",133,NA,1,"no-go","","hsam_q2","self-first"
"CNTRL10","CTRL",134,0.3933,1,"go","l","hsam_q2","self-first"
"CNTRL10","CTRL",135,NA,1,"no-go","","hsam_q2","self-first"
"CNTRL10","CTRL",136,0.5012,1,"go","l","hsam_q2","self-first"
"CNTRL10","CTRL",137,NA,1,"no-go","","hsam_q2","self-first"
"CNTRL10","CTRL",138,NA,1,"no-go","","hsam_q2","self-first"
"CNTRL10","CTRL",139,0.5006,1,"go","a","hsam_q2","self-first"
"CNTRL10","CTRL",140,NA,1,"no-go","","hsam_q2","self-first"
"CNTRL10","CTRL",141,NA,1,"no-go","","hsam_q2","self-first"
"CNTRL10","CTRL",142,NA,1,"no-go","","hsam_q2","self-first"
"CNTRL10","CTRL",143,0.4701,1,"go","l","hsam_q2","self-first"
"CNTRL10","CTRL",144,0.7167,1,"go","l","hsam_q2","self-first"
"CNTRL10","CTRL",145,0.427,1,"go","a","hsam_q2","self-first"
"CNTRL10","CTRL",146,0.3677,1,"go","l","hsam_q2","self-first"
"CNTRL10","CTRL",147,NA,1,"no-go","","hsam_q2","self-first"
"CNTRL10","CTRL",148,0.4512,1,"go","l","hsam_q2","self-first"
"CNTRL10","CTRL",149,NA,1,"no-go","","hsam_q2","self-first"
"CNTRL10","CTRL",150,NA,1,"no-go","","hsam_q2","self-first"
"CNTRL10","CTRL",151,0.6522,1,"go","a","hsam_q2","self-first"
"CNTRL10","CTRL",152,NA,1,"no-go","","hsam_q2","self-first"
"CNTRL10","CTRL",153,0.6995,1,"go","a","hsam_q2","self-first"
"CNTRL10","CTRL",154,0.4401,1,"go","l","hsam_q2","self-first"
"CNTRL10","CTRL",155,NA,1,"no-go","","hsam_q2","self-first"
"CNTRL10","CTRL",156,NA,1,"no-go","","hsam_q2","self-first"
"CNTRL10","CTRL",157,NA,1,"no-go","","hsam_q2","self-first"
"CNTRL10","CTRL",158,NA,1,"no-go","","hsam_q2","self-first"
"CNTRL10","CTRL",159,0.6449,1,"go","a","hsam_q2","self-first"
"CNTRL10","CTRL",160,0.8973,1,"go","l","hsam_q2","self-first"
"CNTRL10","CTRL",161,NA,1,"no-go","","hsam_q2","self-first"
"CNTRL10","CTRL",162,NA,1,"no-go","","hsam_q2","self-first"
"CNTRL10","CTRL",163,0.534,1,"go","l","hsam_q2","self-first"
"CNTRL10","CTRL",164,0.5721,1,"go","a","hsam_q2","self-first"
"CNTRL10","CTRL",165,0.3707,1,"go","l","hsam_q2","self-first"
"CNTRL10","CTRL",166,NA,1,"no-go","","hsam_q2","self-first"
"CNTRL10","CTRL",167,0.4836,1,"go","a","hsam_q2","self-first"
"CNTRL10","CTRL",168,0.3671,1,"go","l","hsam_q2","self-first"
"CNTRL10","CTRL",169,0.6316,1,"go","l","hsam_q2","self-first"
"CNTRL10","CTRL",170,0.4104,1,"go","a","hsam_q2","self-first"
"CNTRL10","CTRL",171,0.5515,1,"go","a","hsam_q2","self-first"
"CNTRL10","CTRL",172,0.3684,1,"go","l","hsam_q2","self-first"
"CNTRL10","CTRL",173,NA,1,"no-go","","hsam_q2","self-first"
"CNTRL10","CTRL",174,NA,1,"no-go","","hsam_q2","self-first"
"CNTRL10","CTRL",175,NA,1,"no-go","","hsam_q2","self-first"
"CNTRL10","CTRL",176,NA,1,"no-go","","hsam_q2","self-first"
"CNTRL10","CTRL",177,0.4504,1,"go","a","hsam_q2","self-first"
"CNTRL10","CTRL",178,0.6502,1,"go","l","hsam_q2","self-first"
"CNTRL10","CTRL",179,NA,1,"no-go","","hsam_q2","self-first"
"CNTRL10","CTRL",180,0.4671,1,"go","a","hsam_q2","self-first"
"CNTRL10","CTRL",181,0.3502,1,"go","l","hsam_q2","self-first"
"CNTRL10","CTRL",182,NA,1,"no-go","","hsam_q2","self-first"
"CNTRL10","CTRL",183,NA,1,"no-go","","hsam_q2","self-first"
"CNTRL10","CTRL",184,0.4345,1,"go","l","hsam_q2","self-first"
"CNTRL10","CTRL",185,0.7183,1,"go","a","hsam_q2","self-first"
"CNTRL10","CTRL",186,0.4084,1,"go","l","hsam_q2","self-first"
"CNTRL10","CTRL",187,0.3908,1,"go","l","hsam_q2","self-first"
"CNTRL10","CTRL",188,NA,1,"no-go","","hsam_q2","self-first"
"CNTRL10","CTRL",189,0.3834,1,"go","l","hsam_q2","self-first"
"CNTRL10","CTRL",190,0.3554,1,"go","l","hsam_q2","self-first"
"CNTRL10","CTRL",191,0.2845,1,"go","l","hsam_q2","self-first"
"CNTRL10","CTRL",192,0.5035,1,"go","a","hsam_q2","self-first"
"CNTRL10","CTRL",193,0.4035,1,"go","a","hsam_q2","self-first"
"CNTRL10","CTRL",194,0.3656,0,"no-go","l","hsam_q2","self-first"
"CNTRL10","CTRL",195,0.4673,1,"go","a","hsam_q2","self-first"
"CNTRL10","CTRL",196,NA,1,"no-go","","hsam_q2","self-first"
"CNTRL10","CTRL",197,0.4183,1,"go","a","hsam_q2","self-first"
"CNTRL10","CTRL",198,0.5159,1,"go","a","hsam_q2","self-first"
"CNTRL10","CTRL",199,NA,1,"no-go","","hsam_q2","self-first"
"CNTRL10","CTRL",200,NA,1,"no-go","","hsam_q2","self-first"
"CNTRL11","CTRL",1,NA,1,"no-go","","hsam_t2","other-first"
"CNTRL11","CTRL",2,0.5732,1,"go","l","hsam_t2","other-first"
"CNTRL11","CTRL",3,0.6053,1,"go","l","hsam_t2","other-first"
"CNTRL11","CTRL",4,0.6372,1,"go","a","hsam_t2","other-first"
"CNTRL11","CTRL",5,0.6769,0,"no-go","l","hsam_t2","other-first"
"CNTRL11","CTRL",6,NA,1,"no-go","","hsam_t2","other-first"
"CNTRL11","CTRL",7,0.6398,1,"go","l","hsam_t2","other-first"
"CNTRL11","CTRL",8,NA,1,"no-go","","hsam_t2","other-first"
"CNTRL11","CTRL",9,0.5185,1,"go","l","hsam_t2","other-first"
"CNTRL11","CTRL",10,0.7522,1,"go","l","hsam_t2","other-first"
"CNTRL11","CTRL",11,0.6114,1,"go","a","hsam_t2","other-first"
"CNTRL11","CTRL",12,NA,1,"no-go","","hsam_t2","other-first"
"CNTRL11","CTRL",13,0.5863,1,"go","a","hsam_t2","other-first"
"CNTRL11","CTRL",14,0.6083,1,"go","a","hsam_t2","other-first"
"CNTRL11","CTRL",15,0.5388,1,"go","a","hsam_t2","other-first"
"CNTRL11","CTRL",16,NA,1,"no-go","","hsam_t2","other-first"
"CNTRL11","CTRL",17,0.431,1,"go","l","hsam_t2","other-first"
"CNTRL11","CTRL",18,0.6123,1,"go","a","hsam_t2","other-first"
"CNTRL11","CTRL",19,0.5961,1,"go","a","hsam_t2","other-first"
"CNTRL11","CTRL",20,0.6555,1,"go","a","hsam_t2","other-first"
"CNTRL11","CTRL",21,NA,1,"no-go","","hsam_t2","other-first"
"CNTRL11","CTRL",22,0.6304,1,"go","a","hsam_t2","other-first"
"CNTRL11","CTRL",23,NA,1,"no-go","","hsam_t2","other-first"
"CNTRL11","CTRL",24,0.6628,1,"go","a","hsam_t2","other-first"
"CNTRL11","CTRL",25,0.8139,1,"go","l","hsam_t2","other-first"
"CNTRL11","CTRL",26,NA,1,"no-go","","hsam_t2","other-first"
"CNTRL11","CTRL",27,0.4837,1,"go","l","hsam_t2","other-first"
"CNTRL11","CTRL",28,0.5439,1,"go","a","hsam_t2","other-first"
"CNTRL11","CTRL",29,NA,1,"no-go","","hsam_t2","other-first"
"CNTRL11","CTRL",30,0.4906,1,"go","l","hsam_t2","other-first"
"CNTRL11","CTRL",31,NA,1,"no-go","","hsam_t2","other-first"
"CNTRL11","CTRL",32,0.4558,1,"go","l","hsam_t2","other-first"
"CNTRL11","CTRL",33,0.5966,1,"go","a","hsam_t2","other-first"
"CNTRL11","CTRL",34,NA,1,"no-go","","hsam_t2","other-first"
"CNTRL11","CTRL",35,NA,1,"no-go","","hsam_t2","other-first"
"CNTRL11","CTRL",36,NA,1,"no-go","","hsam_t2","other-first"
"CNTRL11","CTRL",37,0.4299,1,"go","l","hsam_t2","other-first"
"CNTRL11","CTRL",38,NA,1,"no-go","","hsam_t2","other-first"
"CNTRL11","CTRL",39,NA,1,"no-go","","hsam_t2","other-first"
"CNTRL11","CTRL",40,NA,1,"no-go","","hsam_t2","other-first"
"CNTRL11","CTRL",41,0.5146,1,"go","l","hsam_t2","other-first"
