"id_subj","group","n_trial","rt","acc","identity"
"CNTRL01","CTRL",1,0.844,1,"non-matching SCONOSCIUTO"
"CNTRL01","CTRL",2,0.698,1,"non-matching TU"
"CNTRL01","CTRL",3,0.801,1,"matching SCONOSCIUTO"
"CNTRL01","CTRL",4,0.724,1,"non-matching TU"
"CNTRL01","CTRL",5,0.799,1,"matching SCONOSCIUTO"
"CNTRL01","CTRL",6,1.207,1,"non-matching SCONOSCIUTO"
"CNTRL01","CTRL",7,0.699,1,"non-matching SCONOSCIUTO"
"CNTRL01","CTRL",8,0.727,1,"non-matching SCONOSCIUTO"
"CNTRL01","CTRL",9,0.842,1,"matching SCONOSCIUTO"
"CNTRL01","CTRL",10,0.779,1,"matching SCONOSCIUTO"
"CNTRL01","CTRL",11,0.784,1,"non-matching TU"
"CNTRL01","CTRL",12,0.884,1,"non-matching TU"
"CNTRL01","CTRL",13,1.051,1,"matching SCONOSCIUTO"
"CNTRL01","CTRL",14,1.018,1,"non-matching SCONOSCIUTO"
"CNTRL01","CTRL",15,0.71,1,"matching TU"
"CNTRL01","CTRL",16,0.665,1,"non-matching SCONOSCIUTO"
"CNTRL01","CTRL",17,0.783,1,"matching TU"
"CNTRL01","CTRL",18,0.818,1,"non-matching TU"
"CNTRL01","CTRL",19,0.801,1,"matching SCONOSCIUTO"
"CNTRL01","CTRL",20,0.734,1,"non-matching TU"
"CNTRL01","CTRL",21,0.822,1,"matching SCONOSCIUTO"
"CNTRL01","CTRL",22,0.75,1,"matching TU"
"CNTRL01","CTRL",23,1.21,1,"matching SCONOSCIUTO"
"CNTRL01","CTRL",24,0.723,1,"non-matching SCONOSCIUTO"
"CNTRL01","CTRL",25,0.833,1,"non-matching SCONOSCIUTO"
"CNTRL01","CTRL",26,1.151,1,"matching SCONOSCIUTO"
"CNTRL01","CTRL",27,0.551,1,"matching SCONOSCIUTO"
"CNTRL01","CTRL",28,0.549,1,"matching SCONOSCIUTO"
"CNTRL01","CTRL",29,0.551,1,"matching SCONOSCIUTO"
"CNTRL01","CTRL",30,0.666,1,"non-matching TU"
"CNTRL01","CTRL",31,0.642,1,"matching TU"
"CNTRL01","CTRL",32,0.894,1,"non-matching SCONOSCIUTO"
"CNTRL01","CTRL",33,0.85,1,"non-matching TU"
"CNTRL01","CTRL",34,0.64,1,"matching TU"
"CNTRL01","CTRL",35,0.643,1,"non-matching TU"
"CNTRL01","CTRL",36,0.557,1,"matching TU"
"CNTRL01","CTRL",37,0.903,1,"non-matching TU"
"CNTRL01","CTRL",38,1.042,1,"matching SCONOSCIUTO"
"CNTRL01","CTRL",39,0.677,1,"matching TU"
"CNTRL01","CTRL",40,0.609,1,"matching TU"
"CNTRL01","CTRL",41,0.768,1,"non-matching SCONOSCIUTO"
"CNTRL01","CTRL",42,0.923,1,"matching SCONOSCIUTO"
"CNTRL01","CTRL",43,0.8,1,"non-matching SCONOSCIUTO"
"CNTRL01","CTRL",44,0.609,1,"matching TU"
"CNTRL01","CTRL",45,0.582,1,"matching TU"
"CNTRL01","CTRL",46,0.774,1,"non-matching SCONOSCIUTO"
"CNTRL01","CTRL",47,0.533,1,"matching TU"
"CNTRL01","CTRL",48,0.721,1,"non-matching SCONOSCIUTO"
"CNTRL01","CTRL",49,1.256,1,"non-matching TU"
"CNTRL01","CTRL",50,0.636,1,"matching TU"
"CNTRL01","CTRL",51,0.64,0,"matching SCONOSCIUTO"
"CNTRL01","CTRL",52,0.708,1,"non-matching TU"
"CNTRL01","CTRL",53,0.776,0,"matching SCONOSCIUTO"
"CNTRL01","CTRL",54,0.582,1,"matching TU"
"CNTRL01","CTRL",55,0.754,1,"non-matching SCONOSCIUTO"
"CNTRL01","CTRL",56,0.551,1,"matching TU"
"CNTRL01","CTRL",57,0.982,1,"matching SCONOSCIUTO"
"CNTRL01","CTRL",58,0.591,1,"matching TU"
"CNTRL01","CTRL",59,0.559,1,"matching TU"
"CNTRL01","CTRL",60,0.709,1,"non-matching SCONOSCIUTO"
"CNTRL01","CTRL",61,0.867,0,"non-matching TU"
"CNTRL01","CTRL",62,0.835,1,"non-matching TU"
"CNTRL01","CTRL",63,0.917,1,"non-matching TU"
"CNTRL01","CTRL",64,0.538,1,"matching TU"
"CNTRL01","CTRL",65,0.79,1,"non-matching SCONOSCIUTO"
"CNTRL01","CTRL",66,0.723,1,"non-matching TU"
"CNTRL01","CTRL",67,0.942,1,"non-matching TU"
"CNTRL01","CTRL",68,0.642,1,"non-matching TU"
"CNTRL01","CTRL",69,0.658,1,"matching TU"
"CNTRL01","CTRL",70,0.525,1,"matching TU"
"CNTRL01","CTRL",71,0.444,1,"matching TU"
"CNTRL01","CTRL",72,0.639,1,"non-matching TU"
"CNTRL01","CTRL",73,0.829,0,"matching SCONOSCIUTO"
"CNTRL01","CTRL",74,0.802,1,"matching SCONOSCIUTO"
"CNTRL01","CTRL",75,0.62,1,"matching TU"
"CNTRL01","CTRL",76,0.635,1,"matching TU"
"CNTRL01","CTRL",77,0.958,1,"non-matching TU"
"CNTRL01","CTRL",78,0.75,1,"matching SCONOSCIUTO"
"CNTRL01","CTRL",79,0.677,1,"non-matching TU"
"CNTRL01","CTRL",80,1.141,1,"non-matching TU"
"CNTRL01","CTRL",81,0.775,1,"non-matching TU"
"CNTRL01","CTRL",82,0.804,1,"non-matching SCONOSCIUTO"
"CNTRL01","CTRL",83,0.615,1,"non-matching TU"
"CNTRL01","CTRL",84,1.276,1,"matching SCONOSCIUTO"
"CNTRL01","CTRL",85,0.751,1,"matching SCONOSCIUTO"
"CNTRL01","CTRL",86,0.716,1,"non-matching TU"
"CNTRL01","CTRL",87,0.966,1,"matching SCONOSCIUTO"
"CNTRL01","CTRL",88,1.492,1,"non-matching TU"
"CNTRL01","CTRL",89,0.987,1,"matching SCONOSCIUTO"
"CNTRL01","CTRL",90,0.526,1,"matching SCONOSCIUTO"
"CNTRL01","CTRL",91,0.858,1,"non-matching SCONOSCIUTO"
"CNTRL01","CTRL",92,0.725,1,"non-matching SCONOSCIUTO"
"CNTRL01","CTRL",93,NA,0,"non-matching TU"
"CNTRL01","CTRL",94,0.902,1,"non-matching SCONOSCIUTO"
"CNTRL01","CTRL",95,0.801,1,"matching TU"
"CNTRL01","CTRL",96,0.792,1,"matching TU"
"CNTRL01","CTRL",97,0.65,1,"matching TU"
"CNTRL01","CTRL",98,0.899,1,"matching SCONOSCIUTO"
"CNTRL01","CTRL",99,0.587,1,"matching TU"
"CNTRL01","CTRL",100,0.801,1,"matching SCONOSCIUTO"
"CNTRL01","CTRL",101,1.168,1,"non-matching SCONOSCIUTO"
"CNTRL01","CTRL",102,0.709,1,"non-matching SCONOSCIUTO"
"CNTRL01","CTRL",103,0.683,1,"non-matching SCONOSCIUTO"
"CNTRL01","CTRL",104,0.731,1,"non-matching TU"
"CNTRL01","CTRL",105,0.743,0,"matching SCONOSCIUTO"
"CNTRL01","CTRL",106,0.74,1,"non-matching SCONOSCIUTO"
"CNTRL01","CTRL",107,0.834,1,"non-matching TU"
"CNTRL01","CTRL",108,0.967,1,"matching SCONOSCIUTO"
"CNTRL01","CTRL",109,0.532,1,"matching SCONOSCIUTO"
"CNTRL01","CTRL",110,0.573,1,"matching TU"
"CNTRL01","CTRL",111,0.603,1,"matching TU"
"CNTRL01","CTRL",112,0.357,1,"matching TU"
"CNTRL01","CTRL",113,0.758,1,"non-matching TU"
"CNTRL01","CTRL",114,0.502,1,"non-matching TU"
"CNTRL01","CTRL",115,0.723,1,"matching SCONOSCIUTO"
"CNTRL01","CTRL",116,0.658,1,"non-matching TU"
"CNTRL01","CTRL",117,0.589,1,"matching TU"
"CNTRL01","CTRL",118,0.851,1,"matching SCONOSCIUTO"
"CNTRL01","CTRL",119,0.697,1,"matching TU"
"CNTRL01","CTRL",120,0.748,1,"non-matching SCONOSCIUTO"
"CNTRL01","CTRL",121,0.949,1,"matching SCONOSCIUTO"
"CNTRL01","CTRL",122,0.718,1,"non-matching TU"
"CNTRL01","CTRL",123,0.535,1,"matching TU"
"CNTRL01","CTRL",124,0.626,1,"non-matching SCONOSCIUTO"
"CNTRL01","CTRL",125,0.59,1,"matching TU"
"CNTRL01","CTRL",126,1.067,1,"non-matching TU"
"CNTRL01","CTRL",127,0.474,1,"matching TU"
"CNTRL01","CTRL",128,0.725,1,"non-matching SCONOSCIUTO"
"CNTRL01","CTRL",129,0.816,1,"non-matching SCONOSCIUTO"
"CNTRL01","CTRL",130,0.915,1,"non-matching TU"
"CNTRL01","CTRL",131,0.774,1,"matching SCONOSCIUTO"
"CNTRL01","CTRL",132,0.8,1,"non-matching SCONOSCIUTO"
"CNTRL01","CTRL",133,0.715,1,"non-matching TU"
"CNTRL01","CTRL",134,0.749,1,"matching SCONOSCIUTO"
"CNTRL01","CTRL",135,0.716,1,"matching TU"
"CNTRL01","CTRL",136,1.098,1,"matching SCONOSCIUTO"
"CNTRL01","CTRL",137,0.545,1,"matching SCONOSCIUTO"
"CNTRL01","CTRL",138,0.527,1,"matching SCONOSCIUTO"
"CNTRL01","CTRL",139,0.717,1,"non-matching SCONOSCIUTO"
"CNTRL01","CTRL",140,0.607,1,"matching TU"
"CNTRL01","CTRL",141,0.824,1,"matching SCONOSCIUTO"
"CNTRL01","CTRL",142,0.858,1,"non-matching SCONOSCIUTO"
"CNTRL01","CTRL",143,1.227,1,"non-matching TU"
"CNTRL01","CTRL",144,1.141,1,"non-matching SCONOSCIUTO"
"CNTRL01","CTRL",145,0.756,1,"non-matching TU"
"CNTRL01","CTRL",146,0.709,1,"non-matching TU"
"CNTRL01","CTRL",147,0.718,1,"matching SCONOSCIUTO"
"CNTRL01","CTRL",148,1.242,1,"non-matching TU"
"CNTRL01","CTRL",149,0.491,1,"matching TU"
"CNTRL01","CTRL",150,0.923,1,"matching SCONOSCIUTO"
"CNTRL01","CTRL",151,0.734,1,"non-matching SCONOSCIUTO"
"CNTRL01","CTRL",152,0.617,1,"matching TU"
"CNTRL01","CTRL",153,0.638,1,"non-matching SCONOSCIUTO"
"CNTRL01","CTRL",154,0.499,1,"matching TU"
"CNTRL01","CTRL",155,0.844,1,"non-matching SCONOSCIUTO"
"CNTRL01","CTRL",156,0.84,0,"non-matching SCONOSCIUTO"
"CNTRL01","CTRL",157,1.241,0,"matching SCONOSCIUTO"
"CNTRL01","CTRL",158,0.891,0,"matching SCONOSCIUTO"
"CNTRL01","CTRL",159,1.014,1,"non-matching SCONOSCIUTO"
"CNTRL01","CTRL",160,1.249,0,"matching SCONOSCIUTO"
"CNTRL01","CTRL",161,0.893,1,"non-matching TU"
"CNTRL01","CTRL",162,0.768,1,"non-matching TU"
"CNTRL01","CTRL",163,0.837,1,"matching SCONOSCIUTO"
"CNTRL01","CTRL",164,0.893,0,"matching SCONOSCIUTO"
"CNTRL01","CTRL",165,0.676,1,"non-matching TU"
"CNTRL01","CTRL",166,0.709,1,"matching TU"
"CNTRL01","CTRL",167,0.593,1,"matching TU"
"CNTRL01","CTRL",168,0.639,1,"non-matching SCONOSCIUTO"
"CNTRL01","CTRL",169,0.625,1,"non-matching SCONOSCIUTO"
"CNTRL01","CTRL",170,1.048,1,"matching SCONOSCIUTO"
"CNTRL01","CTRL",171,0.893,1,"matching TU"
"CNTRL01","CTRL",172,0.756,1,"matching SCONOSCIUTO"
"CNTRL01","CTRL",173,0.616,1,"non-matching SCONOSCIUTO"
"CNTRL01","CTRL",174,0.726,1,"non-matching SCONOSCIUTO"
"CNTRL01","CTRL",175,0.49,1,"matching TU"
"CNTRL01","CTRL",176,0.6,1,"non-matching SCONOSCIUTO"
"CNTRL01","CTRL",177,0.591,1,"matching TU"
"CNTRL01","CTRL",178,0.76,1,"non-matching SCONOSCIUTO"
"CNTRL01","CTRL",179,0.753,1,"non-matching TU"
"CNTRL01","CTRL",180,0.699,1,"non-matching TU"
"CNTRL01","CTRL",181,0.665,1,"non-matching SCONOSCIUTO"
"CNTRL01","CTRL",182,0.815,1,"non-matching TU"
"CNTRL01","CTRL",183,0.727,1,"non-matching SCONOSCIUTO"
"CNTRL01","CTRL",184,0.424,1,"matching TU"
"CNTRL01","CTRL",185,0.508,1,"matching TU"
"CNTRL01","CTRL",186,0.945,1,"matching SCONOSCIUTO"
"CNTRL01","CTRL",187,0.573,1,"matching TU"
"CNTRL01","CTRL",188,0.406,1,"matching TU"
"CNTRL01","CTRL",189,0.808,1,"non-matching SCONOSCIUTO"
"CNTRL01","CTRL",190,0.954,1,"non-matching TU"
"CNTRL01","CTRL",191,1.069,1,"non-matching SCONOSCIUTO"
"CNTRL01","CTRL",192,1.318,1,"non-matching SCONOSCIUTO"
"CNTRL01","CTRL",193,0.694,1,"non-matching SCONOSCIUTO"
"CNTRL01","CTRL",194,0.756,1,"non-matching TU"
"CNTRL01","CTRL",195,0.741,0,"matching TU"
"CNTRL01","CTRL",196,0.684,1,"non-matching TU"
"CNTRL01","CTRL",197,0.568,1,"matching TU"
"CNTRL01","CTRL",198,0.626,1,"non-matching TU"
"CNTRL01","CTRL",199,0.786,1,"matching SCONOSCIUTO"
"CNTRL01","CTRL",200,0.669,1,"non-matching SCONOSCIUTO"
"CNTRL02","CTRL",1,0.8869,1,"non-matching SCONOSCIUTO"
"CNTRL02","CTRL",2,0.8103,0,"non-matching TU"
"CNTRL02","CTRL",3,1.2808,1,"non-matching TU"
"CNTRL02","CTRL",4,1.5752,1,"non-matching TU"
"CNTRL02","CTRL",5,1.1418,1,"matching SCONOSCIUTO"
"CNTRL02","CTRL",6,0.8633,1,"matching TU"
"CNTRL02","CTRL",7,0.9888,1,"non-matching SCONOSCIUTO"
"CNTRL02","CTRL",8,1.1346,1,"non-matching SCONOSCIUTO"
"CNTRL02","CTRL",9,1.0913,1,"non-matching TU"
"CNTRL02","CTRL",10,1.4518,1,"non-matching SCONOSCIUTO"
"CNTRL02","CTRL",11,0.7443,1,"matching TU"
"CNTRL02","CTRL",12,0.7804,1,"matching TU"
"CNTRL02","CTRL",13,1.2408,1,"matching SCONOSCIUTO"
"CNTRL02","CTRL",14,0.834,1,"non-matching TU"
"CNTRL02","CTRL",15,1.4777,1,"non-matching TU"
"CNTRL02","CTRL",16,0.936,1,"non-matching SCONOSCIUTO"
"CNTRL02","CTRL",17,1.2013,1,"matching SCONOSCIUTO"
"CNTRL02","CTRL",18,0.7807,1,"matching TU"
"CNTRL02","CTRL",19,0.8531,1,"non-matching SCONOSCIUTO"
"CNTRL02","CTRL",20,1.2561,1,"non-matching TU"
"CNTRL02","CTRL",21,1.2583,1,"non-matching SCONOSCIUTO"
"CNTRL02","CTRL",22,1.1935,1,"non-matching SCONOSCIUTO"
"CNTRL02","CTRL",23,1.1077,1,"matching SCONOSCIUTO"
"CNTRL02","CTRL",24,0.8094,1,"non-matching TU"
"CNTRL02","CTRL",25,1.1011,1,"matching SCONOSCIUTO"
"CNTRL02","CTRL",26,0.7162,1,"non-matching TU"
"CNTRL02","CTRL",27,0.9469,1,"matching TU"
"CNTRL02","CTRL",28,0.6627,1,"non-matching SCONOSCIUTO"
"CNTRL02","CTRL",29,0.8018,1,"non-matching SCONOSCIUTO"
"CNTRL02","CTRL",30,0.8471,1,"matching TU"
"CNTRL02","CTRL",31,0.6994,1,"matching TU"
"CNTRL02","CTRL",32,1.2452,1,"non-matching SCONOSCIUTO"
"CNTRL02","CTRL",33,0.5974,1,"matching TU"
"CNTRL02","CTRL",34,1.0171,1,"non-matching TU"
"CNTRL02","CTRL",35,0.8087,1,"non-matching SCONOSCIUTO"
"CNTRL02","CTRL",36,1.5045,1,"non-matching TU"
"CNTRL02","CTRL",37,0.738,1,"non-matching TU"
"CNTRL02","CTRL",38,1.078,1,"matching TU"
"CNTRL02","CTRL",39,0.8436,1,"non-matching SCONOSCIUTO"
"CNTRL02","CTRL",40,0.7288,1,"matching TU"
"CNTRL02","CTRL",41,0.9597,1,"non-matching TU"
"CNTRL02","CTRL",42,0.8592,1,"matching TU"
"CNTRL02","CTRL",43,0.7098,1,"matching TU"
"CNTRL02","CTRL",44,0.8717,1,"non-matching TU"
"CNTRL02","CTRL",45,0.7283,1,"matching TU"
"CNTRL02","CTRL",46,0.8622,1,"non-matching SCONOSCIUTO"
"CNTRL02","CTRL",47,0.6709,1,"matching TU"
"CNTRL02","CTRL",48,0.8959,1,"non-matching SCONOSCIUTO"
"CNTRL02","CTRL",49,0.7946,1,"matching TU"
"CNTRL02","CTRL",50,0.6359,1,"matching TU"
"CNTRL02","CTRL",51,0.7782,1,"non-matching SCONOSCIUTO"
"CNTRL02","CTRL",52,0.7779,1,"matching TU"
"CNTRL02","CTRL",53,0.8009,1,"matching TU"
"CNTRL02","CTRL",54,0.6937,1,"non-matching TU"
"CNTRL02","CTRL",55,0.6419,1,"matching TU"
"CNTRL02","CTRL",56,1.0585,1,"matching SCONOSCIUTO"
"CNTRL02","CTRL",57,0.813,1,"matching SCONOSCIUTO"
"CNTRL02","CTRL",58,0.8676,1,"non-matching SCONOSCIUTO"
"CNTRL02","CTRL",59,1.0603,1,"matching SCONOSCIUTO"
"CNTRL02","CTRL",60,0.9868,1,"non-matching SCONOSCIUTO"
"CNTRL02","CTRL",61,0.8455,1,"matching SCONOSCIUTO"
"CNTRL02","CTRL",62,0.699,1,"non-matching TU"
"CNTRL02","CTRL",63,0.9787,1,"matching SCONOSCIUTO"
"CNTRL02","CTRL",64,0.7374,1,"matching TU"
"CNTRL02","CTRL",65,0.6777,1,"non-matching TU"
"CNTRL02","CTRL",66,NA,0,"non-matching TU"
"CNTRL02","CTRL",67,0.6942,1,"matching TU"
"CNTRL02","CTRL",68,1.0274,1,"non-matching TU"
"CNTRL02","CTRL",69,0.8556,1,"non-matching SCONOSCIUTO"
"CNTRL02","CTRL",70,0.844,1,"matching TU"
"CNTRL02","CTRL",71,0.881,1,"matching SCONOSCIUTO"
"CNTRL02","CTRL",72,0.6511,0,"matching SCONOSCIUTO"
"CNTRL02","CTRL",73,0.6779,1,"matching TU"
"CNTRL02","CTRL",74,0.9481,1,"non-matching SCONOSCIUTO"
"CNTRL02","CTRL",75,0.6042,1,"matching TU"
"CNTRL02","CTRL",76,1.084,1,"non-matching TU"
"CNTRL02","CTRL",77,0.8632,1,"non-matching SCONOSCIUTO"
"CNTRL02","CTRL",78,0.8985,1,"matching SCONOSCIUTO"
"CNTRL02","CTRL",79,0.7439,1,"non-matching TU"
"CNTRL02","CTRL",80,1.082,1,"matching SCONOSCIUTO"
"CNTRL02","CTRL",81,0.805,1,"matching SCONOSCIUTO"
"CNTRL02","CTRL",82,0.6878,1,"matching TU"
"CNTRL02","CTRL",83,0.8349,1,"matching SCONOSCIUTO"
"CNTRL02","CTRL",84,1.0889,1,"non-matching TU"
"CNTRL02","CTRL",85,0.9212,1,"non-matching TU"
"CNTRL02","CTRL",86,0.6924,1,"matching SCONOSCIUTO"
"CNTRL02","CTRL",87,0.983,1,"matching SCONOSCIUTO"
"CNTRL02","CTRL",88,0.6578,1,"matching TU"
"CNTRL02","CTRL",89,0.8951,1,"non-matching TU"
"CNTRL02","CTRL",90,0.9477,1,"matching TU"
"CNTRL02","CTRL",91,1.2652,1,"non-matching SCONOSCIUTO"
"CNTRL02","CTRL",92,0.9265,1,"non-matching TU"
"CNTRL02","CTRL",93,0.9448,1,"non-matching SCONOSCIUTO"
"CNTRL02","CTRL",94,0.8118,1,"matching SCONOSCIUTO"
"CNTRL02","CTRL",95,0.9589,1,"matching SCONOSCIUTO"
"CNTRL02","CTRL",96,0.6861,1,"matching TU"
"CNTRL02","CTRL",97,0.7706,1,"matching SCONOSCIUTO"
"CNTRL02","CTRL",98,1.0912,1,"matching SCONOSCIUTO"
"CNTRL02","CTRL",99,0.7478,1,"non-matching SCONOSCIUTO"
"CNTRL02","CTRL",100,0.8654,1,"matching SCONOSCIUTO"
"CNTRL02","CTRL",101,0.8331,1,"non-matching SCONOSCIUTO"
"CNTRL02","CTRL",102,0.9112,1,"matching SCONOSCIUTO"
"CNTRL02","CTRL",103,0.8973,1,"non-matching SCONOSCIUTO"
"CNTRL02","CTRL",104,0.9594,1,"non-matching TU"
"CNTRL02","CTRL",105,0.8564,1,"non-matching SCONOSCIUTO"
"CNTRL02","CTRL",106,0.9692,1,"non-matching TU"
"CNTRL02","CTRL",107,0.8608,1,"non-matching TU"
"CNTRL02","CTRL",108,1.1437,1,"matching TU"
"CNTRL02","CTRL",109,1.1041,1,"matching SCONOSCIUTO"
"CNTRL02","CTRL",110,0.8431,1,"non-matching TU"
"CNTRL02","CTRL",111,1.0602,1,"non-matching TU"
"CNTRL02","CTRL",112,0.8401,1,"matching SCONOSCIUTO"
"CNTRL02","CTRL",113,1.0848,1,"non-matching TU"
"CNTRL02","CTRL",114,0.8307,1,"matching SCONOSCIUTO"
"CNTRL02","CTRL",115,1.313,1,"matching SCONOSCIUTO"
"CNTRL02","CTRL",116,1.032,1,"non-matching SCONOSCIUTO"
"CNTRL02","CTRL",117,0.7636,1,"matching TU"
"CNTRL02","CTRL",118,0.793,1,"non-matching SCONOSCIUTO"
"CNTRL02","CTRL",119,0.8732,1,"non-matching TU"
"CNTRL02","CTRL",120,0.6239,0,"non-matching SCONOSCIUTO"
"CNTRL02","CTRL",121,1.0164,1,"matching SCONOSCIUTO"
"CNTRL02","CTRL",122,0.9115,1,"non-matching SCONOSCIUTO"
"CNTRL02","CTRL",123,NA,0,"matching SCONOSCIUTO"
"CNTRL02","CTRL",124,0.7419,0,"non-matching TU"
"CNTRL02","CTRL",125,0.8527,1,"matching SCONOSCIUTO"
"CNTRL02","CTRL",126,0.8266,1,"non-matching SCONOSCIUTO"
"CNTRL02","CTRL",127,0.9138,1,"matching SCONOSCIUTO"
"CNTRL02","CTRL",128,0.7172,1,"non-matching TU"
"CNTRL02","CTRL",129,0.719,1,"matching TU"
"CNTRL02","CTRL",130,0.7881,1,"non-matching SCONOSCIUTO"
"CNTRL02","CTRL",131,0.9453,1,"non-matching TU"
"CNTRL02","CTRL",132,NA,0,"non-matching SCONOSCIUTO"
"CNTRL02","CTRL",133,1.0443,1,"non-matching SCONOSCIUTO"
"CNTRL02","CTRL",134,0.9566,1,"non-matching SCONOSCIUTO"
"CNTRL02","CTRL",135,0.7899,1,"matching SCONOSCIUTO"
"CNTRL02","CTRL",136,0.7439,1,"non-matching SCONOSCIUTO"
"CNTRL02","CTRL",137,1.0279,1,"matching TU"
"CNTRL02","CTRL",138,0.7033,1,"non-matching SCONOSCIUTO"
"CNTRL02","CTRL",139,0.5996,1,"matching TU"
"CNTRL02","CTRL",140,0.9707,1,"non-matching TU"
"CNTRL02","CTRL",141,0.7434,1,"matching TU"
"CNTRL02","CTRL",142,0.8898,1,"non-matching SCONOSCIUTO"
"CNTRL02","CTRL",143,0.6713,1,"matching TU"
"CNTRL02","CTRL",144,0.8334,1,"matching TU"
"CNTRL02","CTRL",145,0.8697,1,"non-matching TU"
"CNTRL02","CTRL",146,0.6852,1,"matching SCONOSCIUTO"
"CNTRL02","CTRL",147,0.787,1,"non-matching TU"
"CNTRL02","CTRL",148,1.0169,1,"matching SCONOSCIUTO"
"CNTRL02","CTRL",149,0.66,1,"matching SCONOSCIUTO"
"CNTRL02","CTRL",150,0.8162,1,"non-matching SCONOSCIUTO"
"CNTRL02","CTRL",151,0.9693,1,"non-matching TU"
"CNTRL02","CTRL",152,0.9702,1,"non-matching TU"
"CNTRL02","CTRL",153,1.1146,1,"matching TU"
"CNTRL02","CTRL",154,0.7825,1,"non-matching SCONOSCIUTO"
"CNTRL02","CTRL",155,0.6757,1,"matching TU"
"CNTRL02","CTRL",156,0.7677,1,"matching TU"
"CNTRL02","CTRL",157,0.6295,1,"matching TU"
"CNTRL02","CTRL",158,0.8068,1,"non-matching TU"
"CNTRL02","CTRL",159,0.9449,1,"non-matching SCONOSCIUTO"
"CNTRL02","CTRL",160,0.8508,1,"matching SCONOSCIUTO"
"CNTRL02","CTRL",161,0.7485,1,"non-matching TU"
"CNTRL02","CTRL",162,0.906,1,"non-matching TU"
"CNTRL02","CTRL",163,1.3448,1,"matching SCONOSCIUTO"
"CNTRL02","CTRL",164,0.7164,1,"matching TU"
"CNTRL02","CTRL",165,0.8051,1,"matching SCONOSCIUTO"
"CNTRL02","CTRL",166,0.7273,1,"matching SCONOSCIUTO"
"CNTRL02","CTRL",167,0.8775,1,"non-matching SCONOSCIUTO"
"CNTRL02","CTRL",168,1.0232,1,"non-matching TU"
"CNTRL02","CTRL",169,0.7529,1,"matching TU"
"CNTRL02","CTRL",170,0.8554,1,"matching SCONOSCIUTO"
"CNTRL02","CTRL",171,0.9227,1,"matching SCONOSCIUTO"
"CNTRL02","CTRL",172,0.8223,1,"non-matching SCONOSCIUTO"
"CNTRL02","CTRL",173,0.8875,1,"non-matching TU"
"CNTRL02","CTRL",174,0.9734,1,"non-matching TU"
"CNTRL02","CTRL",175,0.7426,1,"matching TU"
"CNTRL02","CTRL",176,0.7213,1,"matching SCONOSCIUTO"
"CNTRL02","CTRL",177,0.7863,1,"matching TU"
"CNTRL02","CTRL",178,0.8568,1,"non-matching SCONOSCIUTO"
"CNTRL02","CTRL",179,0.8658,1,"matching SCONOSCIUTO"
"CNTRL02","CTRL",180,0.7596,1,"matching TU"
"CNTRL02","CTRL",181,0.9439,0,"matching SCONOSCIUTO"
"CNTRL02","CTRL",182,1.0769,1,"non-matching TU"
"CNTRL02","CTRL",183,0.837,1,"non-matching SCONOSCIUTO"
"CNTRL02","CTRL",184,1.1395,1,"non-matching TU"
"CNTRL02","CTRL",185,0.8009,1,"non-matching SCONOSCIUTO"
"CNTRL02","CTRL",186,0.9529,1,"matching SCONOSCIUTO"
"CNTRL02","CTRL",187,0.7424,1,"matching TU"
"CNTRL02","CTRL",188,0.9572,1,"matching TU"
"CNTRL02","CTRL",189,0.735,1,"non-matching SCONOSCIUTO"
"CNTRL02","CTRL",190,1.0791,1,"matching SCONOSCIUTO"
"CNTRL02","CTRL",191,0.7749,1,"matching TU"
"CNTRL02","CTRL",192,0.5667,1,"matching TU"
"CNTRL02","CTRL",193,0.7456,1,"matching SCONOSCIUTO"
"CNTRL02","CTRL",194,0.865,1,"non-matching SCONOSCIUTO"
"CNTRL02","CTRL",195,0.6609,1,"matching TU"
"CNTRL02","CTRL",196,1.1424,1,"non-matching TU"
"CNTRL02","CTRL",197,0.9032,1,"non-matching TU"
"CNTRL02","CTRL",198,0.9003,1,"matching SCONOSCIUTO"
"CNTRL02","CTRL",199,1.1027,1,"matching SCONOSCIUTO"
"CNTRL02","CTRL",200,0.8374,1,"non-matching SCONOSCIUTO"
"CNTRL04","CTRL",1,0.7391,1,"matching TU"
"CNTRL04","CTRL",2,0.8351,1,"non-matching TU"
"CNTRL04","CTRL",3,1.4269,1,"non-matching TU"
"CNTRL04","CTRL",4,1.0561,1,"non-matching TU"
"CNTRL04","CTRL",5,0.6563,1,"matching TU"
"CNTRL04","CTRL",6,0.8727,1,"matching SCONOSCIUTO"
"CNTRL04","CTRL",7,0.8213,1,"matching TU"
"CNTRL04","CTRL",8,0.9469,1,"matching SCONOSCIUTO"
"CNTRL04","CTRL",9,0.8901,1,"non-matching SCONOSCIUTO"
"CNTRL04","CTRL",10,1.0123,1,"matching SCONOSCIUTO"
"CNTRL04","CTRL",11,1.0113,1,"matching SCONOSCIUTO"
"CNTRL04","CTRL",12,0.8765,1,"matching SCONOSCIUTO"
"CNTRL04","CTRL",13,1.129,1,"non-matching SCONOSCIUTO"
"CNTRL04","CTRL",14,0.7345,1,"matching TU"
"CNTRL04","CTRL",15,0.6707,1,"matching TU"
"CNTRL04","CTRL",16,1.085,1,"non-matching SCONOSCIUTO"
"CNTRL04","CTRL",17,0.9453,1,"matching SCONOSCIUTO"
"CNTRL04","CTRL",18,0.5826,1,"matching TU"
"CNTRL04","CTRL",19,0.6652,1,"matching TU"
"CNTRL04","CTRL",20,1.0065,1,"matching TU"
"CNTRL04","CTRL",21,0.9172,1,"matching SCONOSCIUTO"
"CNTRL04","CTRL",22,0.6023,1,"matching TU"
"CNTRL04","CTRL",23,0.7085,1,"matching SCONOSCIUTO"
"CNTRL04","CTRL",24,0.6856,1,"matching TU"
"CNTRL04","CTRL",25,0.9835,1,"non-matching TU"
"CNTRL04","CTRL",26,0.8508,1,"matching TU"
"CNTRL04","CTRL",27,0.8293,1,"matching SCONOSCIUTO"
"CNTRL04","CTRL",28,0.736,1,"matching TU"
"CNTRL04","CTRL",29,NA,0,"non-matching SCONOSCIUTO"
"CNTRL04","CTRL",30,1.31,1,"non-matching SCONOSCIUTO"
"CNTRL04","CTRL",31,1.0338,1,"matching SCONOSCIUTO"
"CNTRL04","CTRL",32,1.074,1,"non-matching TU"
"CNTRL04","CTRL",33,NA,0,"non-matching TU"
"CNTRL04","CTRL",34,0.9662,1,"non-matching TU"
"CNTRL04","CTRL",35,1.1215,1,"matching SCONOSCIUTO"
"CNTRL04","CTRL",36,1.0436,1,"non-matching SCONOSCIUTO"
"CNTRL04","CTRL",37,1.001,1,"matching SCONOSCIUTO"
"CNTRL04","CTRL",38,0.6633,1,"matching TU"
"CNTRL04","CTRL",39,0.7295,1,"matching TU"
"CNTRL04","CTRL",40,0.5302,1,"matching TU"
"CNTRL04","CTRL",41,0.8859,1,"non-matching SCONOSCIUTO"
"CNTRL04","CTRL",42,0.7465,1,"matching TU"
"CNTRL04","CTRL",43,0.9639,1,"non-matching SCONOSCIUTO"
"CNTRL04","CTRL",44,0.9835,1,"non-matching SCONOSCIUTO"
"CNTRL04","CTRL",45,0.7899,1,"non-matching SCONOSCIUTO"
"CNTRL04","CTRL",46,0.7662,1,"non-matching SCONOSCIUTO"
"CNTRL04","CTRL",47,0.939,1,"matching TU"
"CNTRL04","CTRL",48,0.9295,1,"matching SCONOSCIUTO"
"CNTRL04","CTRL",49,0.9796,1,"non-matching TU"
"CNTRL04","CTRL",50,0.9875,1,"matching TU"
"CNTRL04","CTRL",51,0.971,1,"non-matching TU"
"CNTRL04","CTRL",52,0.8964,1,"non-matching SCONOSCIUTO"
"CNTRL04","CTRL",53,1.008,1,"non-matching SCONOSCIUTO"
"CNTRL04","CTRL",54,1.3676,1,"non-matching TU"
"CNTRL04","CTRL",55,0.6781,1,"matching TU"
"CNTRL04","CTRL",56,0.6568,1,"matching TU"
"CNTRL04","CTRL",57,0.8516,0,"matching SCONOSCIUTO"
"CNTRL04","CTRL",58,0.8641,1,"non-matching SCONOSCIUTO"
"CNTRL04","CTRL",59,0.9347,1,"non-matching TU"
"CNTRL04","CTRL",60,1.0175,1,"matching SCONOSCIUTO"
"CNTRL04","CTRL",61,0.8456,1,"non-matching SCONOSCIUTO"
"CNTRL04","CTRL",62,1.182,1,"non-matching TU"
"CNTRL04","CTRL",63,1.1935,1,"matching SCONOSCIUTO"
"CNTRL04","CTRL",64,0.6197,1,"matching TU"
"CNTRL04","CTRL",65,0.6504,1,"matching TU"
"CNTRL04","CTRL",66,0.8643,1,"matching SCONOSCIUTO"
"CNTRL04","CTRL",67,1.1537,1,"non-matching TU"
"CNTRL04","CTRL",68,1.007,1,"matching SCONOSCIUTO"
"CNTRL04","CTRL",69,1.148,1,"non-matching TU"
"CNTRL04","CTRL",70,0.7271,1,"matching TU"
"CNTRL04","CTRL",71,0.831,1,"matching SCONOSCIUTO"
"CNTRL04","CTRL",72,0.8018,1,"matching TU"
"CNTRL04","CTRL",73,0.9204,1,"matching SCONOSCIUTO"
"CNTRL04","CTRL",74,0.9318,1,"non-matching SCONOSCIUTO"
"CNTRL04","CTRL",75,1.0629,1,"matching SCONOSCIUTO"
"CNTRL04","CTRL",76,0.7477,1,"non-matching TU"
"CNTRL04","CTRL",77,0.9323,1,"non-matching SCONOSCIUTO"
"CNTRL04","CTRL",78,0.8384,1,"matching SCONOSCIUTO"
"CNTRL04","CTRL",79,0.9518,1,"non-matching SCONOSCIUTO"
"CNTRL04","CTRL",80,1.1248,1,"non-matching TU"
"CNTRL04","CTRL",81,0.8362,1,"non-matching TU"
"CNTRL04","CTRL",82,1.2396,1,"matching SCONOSCIUTO"
"CNTRL04","CTRL",83,1.1859,1,"matching SCONOSCIUTO"
"CNTRL04","CTRL",84,0.8242,1,"non-matching TU"
"CNTRL04","CTRL",85,0.7087,1,"non-matching SCONOSCIUTO"
"CNTRL04","CTRL",86,1.2609,1,"non-matching TU"
"CNTRL04","CTRL",87,0.8302,1,"matching SCONOSCIUTO"
"CNTRL04","CTRL",88,1.1333,1,"non-matching TU"
"CNTRL04","CTRL",89,0.7197,1,"matching TU"
"CNTRL04","CTRL",90,0.8894,1,"non-matching TU"
"CNTRL04","CTRL",91,1.1328,1,"non-matching SCONOSCIUTO"
"CNTRL04","CTRL",92,0.7351,1,"matching TU"
"CNTRL04","CTRL",93,1.2365,1,"non-matching TU"
"CNTRL04","CTRL",94,1.0093,1,"matching SCONOSCIUTO"
"CNTRL04","CTRL",95,1.17,1,"matching SCONOSCIUTO"
"CNTRL04","CTRL",96,0.7103,1,"matching TU"
"CNTRL04","CTRL",97,0.9696,1,"matching SCONOSCIUTO"
"CNTRL04","CTRL",98,0.7692,1,"non-matching TU"
"CNTRL04","CTRL",99,1.2471,1,"non-matching TU"
"CNTRL04","CTRL",100,0.7789,1,"matching SCONOSCIUTO"
"CNTRL04","CTRL",101,0.6247,1,"matching TU"
"CNTRL04","CTRL",102,0.8696,1,"non-matching TU"
"CNTRL04","CTRL",103,1.125,1,"matching SCONOSCIUTO"
"CNTRL04","CTRL",104,0.8793,1,"non-matching SCONOSCIUTO"
"CNTRL04","CTRL",105,1.0732,1,"matching SCONOSCIUTO"
"CNTRL04","CTRL",106,1.0495,1,"matching SCONOSCIUTO"
"CNTRL04","CTRL",107,1.3146,1,"matching TU"
"CNTRL04","CTRL",108,0.7329,1,"matching TU"
"CNTRL04","CTRL",109,0.7107,1,"non-matching SCONOSCIUTO"
"CNTRL04","CTRL",110,0.9991,1,"matching TU"
"CNTRL04","CTRL",111,1.0365,1,"matching TU"
"CNTRL04","CTRL",112,0.5424,1,"matching TU"
"CNTRL04","CTRL",113,0.7053,1,"non-matching SCONOSCIUTO"
"CNTRL04","CTRL",114,0.9343,1,"non-matching SCONOSCIUTO"
"CNTRL04","CTRL",115,1.1557,0,"matching SCONOSCIUTO"
"CNTRL04","CTRL",116,0.9553,1,"matching SCONOSCIUTO"
"CNTRL04","CTRL",117,0.6976,1,"matching TU"
"CNTRL04","CTRL",118,NA,0,"non-matching TU"
"CNTRL04","CTRL",119,1.0417,1,"non-matching SCONOSCIUTO"
"CNTRL04","CTRL",120,0.9046,1,"non-matching SCONOSCIUTO"
"CNTRL04","CTRL",121,0.796,1,"matching TU"
"CNTRL04","CTRL",122,0.8814,1,"non-matching SCONOSCIUTO"
"CNTRL04","CTRL",123,1.1996,1,"non-matching SCONOSCIUTO"
"CNTRL04","CTRL",124,0.8534,1,"non-matching SCONOSCIUTO"
"CNTRL04","CTRL",125,1.0005,1,"non-matching TU"
"CNTRL04","CTRL",126,0.8658,1,"non-matching TU"
"CNTRL04","CTRL",127,1.0626,1,"matching SCONOSCIUTO"
"CNTRL04","CTRL",128,0.6533,1,"non-matching SCONOSCIUTO"
"CNTRL04","CTRL",129,1.0223,1,"matching SCONOSCIUTO"
"CNTRL04","CTRL",130,0.7826,1,"matching TU"
"CNTRL04","CTRL",131,0.9759,1,"matching SCONOSCIUTO"
"CNTRL04","CTRL",132,1.1229,1,"non-matching TU"
"CNTRL04","CTRL",133,1.0339,1,"non-matching SCONOSCIUTO"
"CNTRL04","CTRL",134,0.9476,1,"matching SCONOSCIUTO"
"CNTRL04","CTRL",135,0.9824,1,"non-matching SCONOSCIUTO"
"CNTRL04","CTRL",136,1.0519,1,"non-matching TU"
"CNTRL04","CTRL",137,0.9785,1,"non-matching TU"
"CNTRL04","CTRL",138,0.9554,1,"non-matching SCONOSCIUTO"
"CNTRL04","CTRL",139,0.7733,1,"matching SCONOSCIUTO"
"CNTRL04","CTRL",140,0.8802,1,"non-matching SCONOSCIUTO"
"CNTRL04","CTRL",141,1.0224,1,"non-matching TU"
"CNTRL04","CTRL",142,1.0976,1,"non-matching TU"
"CNTRL04","CTRL",143,0.8679,1,"non-matching SCONOSCIUTO"
"CNTRL04","CTRL",144,1.0165,1,"non-matching SCONOSCIUTO"
"CNTRL04","CTRL",145,1.0813,1,"non-matching TU"
"CNTRL04","CTRL",146,0.7507,1,"non-matching SCONOSCIUTO"
"CNTRL04","CTRL",147,0.8885,1,"matching SCONOSCIUTO"
"CNTRL04","CTRL",148,0.9795,1,"matching SCONOSCIUTO"
"CNTRL04","CTRL",149,0.8091,1,"matching TU"
"CNTRL04","CTRL",150,1.0123,1,"matching SCONOSCIUTO"
"CNTRL04","CTRL",151,0.8805,1,"non-matching SCONOSCIUTO"
"CNTRL04","CTRL",152,0.7517,1,"matching TU"
"CNTRL04","CTRL",153,0.9271,1,"matching TU"
"CNTRL04","CTRL",154,0.929,1,"matching SCONOSCIUTO"
"CNTRL04","CTRL",155,0.9593,1,"non-matching TU"
"CNTRL04","CTRL",156,1.5248,1,"matching TU"
"CNTRL04","CTRL",157,0.8227,1,"non-matching TU"
"CNTRL04","CTRL",158,0.9083,1,"non-matching SCONOSCIUTO"
"CNTRL04","CTRL",159,1.0783,1,"matching TU"
"CNTRL04","CTRL",160,0.6679,1,"matching TU"
"CNTRL04","CTRL",161,0.7994,1,"matching SCONOSCIUTO"
"CNTRL04","CTRL",162,0.8914,1,"non-matching TU"
"CNTRL04","CTRL",163,1.0627,1,"non-matching SCONOSCIUTO"
"CNTRL04","CTRL",164,1.0104,1,"non-matching TU"
"CNTRL04","CTRL",165,1.3726,1,"matching SCONOSCIUTO"
"CNTRL04","CTRL",166,0.9176,1,"non-matching SCONOSCIUTO"
"CNTRL04","CTRL",167,0.8933,1,"non-matching TU"
"CNTRL04","CTRL",168,0.647,1,"matching TU"
"CNTRL04","CTRL",169,1.0418,1,"matching TU"
"CNTRL04","CTRL",170,0.5882,1,"matching TU"
"CNTRL04","CTRL",171,0.7942,1,"non-matching TU"
"CNTRL04","CTRL",172,0.7288,1,"non-matching SCONOSCIUTO"
"CNTRL04","CTRL",173,1.412,1,"non-matching SCONOSCIUTO"
"CNTRL04","CTRL",174,1.0607,1,"matching SCONOSCIUTO"
"CNTRL04","CTRL",175,NA,0,"matching SCONOSCIUTO"
"CNTRL04","CTRL",176,0.8758,1,"non-matching TU"
"CNTRL04","CTRL",177,0.852,1,"non-matching SCONOSCIUTO"
"CNTRL04","CTRL",178,0.7029,1,"matching TU"
"CNTRL04","CTRL",179,1.0953,1,"non-matching TU"
"CNTRL04","CTRL",180,1.0557,1,"non-matching TU"
"CNTRL04","CTRL",181,1.1834,1,"matching TU"
"CNTRL04","CTRL",182,0.6267,1,"non-matching SCONOSCIUTO"
"CNTRL04","CTRL",183,0.7332,1,"matching TU"
"CNTRL04","CTRL",184,0.7408,1,"non-matching TU"
"CNTRL04","CTRL",185,1.3223,1,"matching SCONOSCIUTO"
"CNTRL04","CTRL",186,0.776,1,"matching TU"
"CNTRL04","CTRL",187,0.8419,1,"non-matching TU"
"CNTRL04","CTRL",188,0.9624,1,"non-matching TU"
"CNTRL04","CTRL",189,0.8946,1,"non-matching SCONOSCIUTO"
"CNTRL04","CTRL",190,0.9366,1,"non-matching SCONOSCIUTO"
"CNTRL04","CTRL",191,0.6701,1,"matching TU"
"CNTRL04","CTRL",192,0.7881,1,"non-matching TU"
"CNTRL04","CTRL",193,0.8169,1,"non-matching TU"
"CNTRL04","CTRL",194,NA,0,"non-matching TU"
"CNTRL04","CTRL",195,0.8999,1,"non-matching TU"
"CNTRL04","CTRL",196,0.9268,1,"matching SCONOSCIUTO"
"CNTRL04","CTRL",197,0.8341,1,"non-matching SCONOSCIUTO"
"CNTRL04","CTRL",198,0.7604,1,"non-matching SCONOSCIUTO"
"CNTRL04","CTRL",199,0.9666,1,"matching SCONOSCIUTO"
"CNTRL04","CTRL",200,1.1259,1,"non-matching SCONOSCIUTO"
"CNTRL05","CTRL",1,0.9469,0,"matching SCONOSCIUTO"
"CNTRL05","CTRL",2,1.2723,1,"non-matching SCONOSCIUTO"
"CNTRL05","CTRL",3,1.2912,1,"matching SCONOSCIUTO"
"CNTRL05","CTRL",4,1.1991,1,"matching SCONOSCIUTO"
"CNTRL05","CTRL",5,1.0936,1,"matching SCONOSCIUTO"
"CNTRL05","CTRL",6,0.8654,1,"non-matching SCONOSCIUTO"
"CNTRL05","CTRL",7,NA,0,"non-matching TU"
"CNTRL05","CTRL",8,1.2306,1,"matching TU"
"CNTRL05","CTRL",9,0.9809,1,"matching TU"
"CNTRL05","CTRL",10,0.8806,0,"non-matching SCONOSCIUTO"
"CNTRL05","CTRL",11,1.0416,1,"non-matching TU"
"CNTRL05","CTRL",12,0.8319,1,"non-matching TU"
"CNTRL05","CTRL",13,0.9066,0,"non-matching SCONOSCIUTO"
"CNTRL05","CTRL",14,1.173,0,"matching TU"
"CNTRL05","CTRL",15,NA,0,"matching SCONOSCIUTO"
"CNTRL05","CTRL",16,0.8061,1,"matching TU"
"CNTRL05","CTRL",17,0.7574,0,"non-matching SCONOSCIUTO"
"CNTRL05","CTRL",18,0.9724,1,"non-matching TU"
"CNTRL05","CTRL",19,1.3152,0,"non-matching SCONOSCIUTO"
"CNTRL05","CTRL",20,0.7469,1,"matching TU"
"CNTRL05","CTRL",21,0.8677,1,"non-matching TU"
"CNTRL05","CTRL",22,0.8501,1,"non-matching SCONOSCIUTO"
"CNTRL05","CTRL",23,0.9993,0,"matching SCONOSCIUTO"
"CNTRL05","CTRL",24,0.95,1,"matching SCONOSCIUTO"
"CNTRL05","CTRL",25,0.8569,1,"matching SCONOSCIUTO"
"CNTRL05","CTRL",26,0.9644,0,"non-matching TU"
"CNTRL05","CTRL",27,1.2458,0,"matching SCONOSCIUTO"
"CNTRL05","CTRL",28,0.8918,1,"matching TU"
"CNTRL05","CTRL",29,0.9155,0,"non-matching SCONOSCIUTO"
"CNTRL05","CTRL",30,1.0803,1,"matching SCONOSCIUTO"
"CNTRL05","CTRL",31,1.2101,1,"non-matching TU"
"CNTRL05","CTRL",32,0.7073,1,"non-matching TU"
"CNTRL05","CTRL",33,1.1355,1,"non-matching TU"
"CNTRL05","CTRL",34,0.9786,1,"matching TU"
"CNTRL05","CTRL",35,0.9701,1,"matching TU"
"CNTRL05","CTRL",36,1.0716,0,"matching SCONOSCIUTO"
"CNTRL05","CTRL",37,0.7095,1,"matching TU"
"CNTRL05","CTRL",38,1.5003,0,"non-matching TU"
"CNTRL05","CTRL",39,0.9688,1,"non-matching SCONOSCIUTO"
"CNTRL05","CTRL",40,1.0964,1,"matching TU"
"CNTRL05","CTRL",41,0.9164,1,"matching TU"
"CNTRL05","CTRL",42,0.8415,0,"matching SCONOSCIUTO"
"CNTRL05","CTRL",43,1.0818,1,"non-matching TU"
"CNTRL05","CTRL",44,0.7189,0,"non-matching SCONOSCIUTO"
"CNTRL05","CTRL",45,0.7861,1,"non-matching SCONOSCIUTO"
"CNTRL05","CTRL",46,0.8261,1,"matching TU"
"CNTRL05","CTRL",47,1.2331,0,"non-matching TU"
"CNTRL05","CTRL",48,0.9522,0,"matching SCONOSCIUTO"
"CNTRL05","CTRL",49,0.8853,0,"matching SCONOSCIUTO"
"CNTRL05","CTRL",50,0.9875,1,"matching TU"
"CNTRL05","CTRL",51,0.8992,0,"non-matching TU"
"CNTRL05","CTRL",52,0.9928,0,"non-matching SCONOSCIUTO"
"CNTRL05","CTRL",53,0.9488,1,"non-matching TU"
"CNTRL05","CTRL",54,1.1677,1,"matching SCONOSCIUTO"
"CNTRL05","CTRL",55,1.1074,1,"non-matching TU"
"CNTRL05","CTRL",56,0.9235,0,"non-matching SCONOSCIUTO"
"CNTRL05","CTRL",57,1.2416,1,"matching TU"
"CNTRL05","CTRL",58,1.3901,1,"non-matching SCONOSCIUTO"
"CNTRL05","CTRL",59,0.938,0,"matching SCONOSCIUTO"
"CNTRL05","CTRL",60,NA,0,"non-matching TU"
"CNTRL05","CTRL",61,0.8417,1,"non-matching TU"
"CNTRL05","CTRL",62,0.8129,1,"non-matching TU"
"CNTRL05","CTRL",63,1.1076,1,"non-matching SCONOSCIUTO"
"CNTRL05","CTRL",64,0.7365,1,"matching TU"
"CNTRL05","CTRL",65,1.3462,0,"matching TU"
"CNTRL05","CTRL",66,1.1829,1,"non-matching TU"
"CNTRL05","CTRL",67,0.6568,1,"non-matching TU"
"CNTRL05","CTRL",68,1.1528,1,"non-matching SCONOSCIUTO"
"CNTRL05","CTRL",69,0.902,1,"non-matching TU"
"CNTRL05","CTRL",70,1.1713,1,"non-matching TU"
"CNTRL05","CTRL",71,1.2036,1,"non-matching SCONOSCIUTO"
"CNTRL05","CTRL",72,0.7611,1,"non-matching SCONOSCIUTO"
"CNTRL05","CTRL",73,0.8777,0,"matching TU"
"CNTRL05","CTRL",74,0.8039,1,"non-matching SCONOSCIUTO"
"CNTRL05","CTRL",75,1.0844,1,"non-matching TU"
"CNTRL05","CTRL",76,0.8772,1,"matching SCONOSCIUTO"
"CNTRL05","CTRL",77,0.8091,1,"matching TU"
"CNTRL05","CTRL",78,1.2202,0,"matching SCONOSCIUTO"
"CNTRL05","CTRL",79,1.0012,1,"non-matching SCONOSCIUTO"
"CNTRL05","CTRL",80,1.1165,1,"matching TU"
"CNTRL05","CTRL",81,0.7765,1,"non-matching SCONOSCIUTO"
"CNTRL05","CTRL",82,0.9299,1,"non-matching SCONOSCIUTO"
"CNTRL05","CTRL",83,0.7095,1,"matching TU"
"CNTRL05","CTRL",84,0.7309,1,"non-matching TU"
"CNTRL05","CTRL",85,0.9386,1,"non-matching TU"
"CNTRL05","CTRL",86,1.2971,1,"non-matching SCONOSCIUTO"
"CNTRL05","CTRL",87,0.6629,1,"matching TU"
"CNTRL05","CTRL",88,0.7286,1,"non-matching SCONOSCIUTO"
"CNTRL05","CTRL",89,0.787,1,"non-matching SCONOSCIUTO"
"CNTRL05","CTRL",90,0.8368,0,"non-matching TU"
"CNTRL05","CTRL",91,0.586,1,"non-matching SCONOSCIUTO"
"CNTRL05","CTRL",92,1.1154,1,"matching SCONOSCIUTO"
"CNTRL05","CTRL",93,0.737,1,"matching TU"
"CNTRL05","CTRL",94,0.8654,1,"non-matching SCONOSCIUTO"
"CNTRL05","CTRL",95,0.8267,1,"matching TU"
"CNTRL05","CTRL",96,0.8824,0,"matching SCONOSCIUTO"
"CNTRL05","CTRL",97,1.123,1,"non-matching TU"
"CNTRL05","CTRL",98,0.9477,1,"non-matching SCONOSCIUTO"
"CNTRL05","CTRL",99,1.2025,0,"non-matching TU"
"CNTRL05","CTRL",100,0.7756,1,"matching TU"
"CNTRL05","CTRL",101,0.7771,1,"matching TU"
"CNTRL05","CTRL",102,0.8398,0,"matching SCONOSCIUTO"
"CNTRL05","CTRL",103,0.8272,1,"matching SCONOSCIUTO"
"CNTRL05","CTRL",104,0.9236,1,"non-matching TU"
"CNTRL05","CTRL",105,1.3044,1,"non-matching TU"
"CNTRL05","CTRL",106,0.6309,1,"matching TU"
"CNTRL05","CTRL",107,0.7257,0,"matching SCONOSCIUTO"
"CNTRL05","CTRL",108,0.666,1,"matching TU"
"CNTRL05","CTRL",109,1.0841,1,"non-matching TU"
"CNTRL05","CTRL",110,0.8378,1,"matching TU"
"CNTRL05","CTRL",111,1.0784,1,"matching SCONOSCIUTO"
"CNTRL05","CTRL",112,0.8141,1,"matching TU"
"CNTRL05","CTRL",113,0.8058,1,"non-matching TU"
"CNTRL05","CTRL",114,0.7965,1,"non-matching TU"
"CNTRL05","CTRL",115,0.9415,1,"non-matching TU"
"CNTRL05","CTRL",116,0.6538,1,"matching TU"
"CNTRL05","CTRL",117,0.8096,1,"non-matching TU"
"CNTRL05","CTRL",118,0.9808,1,"matching SCONOSCIUTO"
"CNTRL05","CTRL",119,0.8293,1,"matching SCONOSCIUTO"
"CNTRL05","CTRL",120,1.0727,1,"matching SCONOSCIUTO"
"CNTRL05","CTRL",121,1.04,1,"non-matching SCONOSCIUTO"
"CNTRL05","CTRL",122,0.8469,1,"matching TU"
"CNTRL05","CTRL",123,1.0048,1,"non-matching SCONOSCIUTO"
"CNTRL05","CTRL",124,0.8489,1,"non-matching SCONOSCIUTO"
"CNTRL05","CTRL",125,0.6296,1,"matching TU"
"CNTRL05","CTRL",126,0.7663,1,"non-matching TU"
"CNTRL05","CTRL",127,0.866,1,"matching TU"
"CNTRL05","CTRL",128,0.7998,1,"non-matching SCONOSCIUTO"
"CNTRL05","CTRL",129,1.1093,0,"matching SCONOSCIUTO"
"CNTRL05","CTRL",130,0.9757,0,"matching SCONOSCIUTO"
"CNTRL05","CTRL",131,0.9949,1,"non-matching SCONOSCIUTO"
"CNTRL05","CTRL",132,0.9732,1,"matching SCONOSCIUTO"
"CNTRL05","CTRL",133,0.8523,1,"matching TU"
"CNTRL05","CTRL",134,0.7509,1,"matching TU"
"CNTRL05","CTRL",135,1.0467,1,"matching SCONOSCIUTO"
"CNTRL05","CTRL",136,0.765,1,"matching SCONOSCIUTO"
"CNTRL05","CTRL",137,0.8567,1,"matching SCONOSCIUTO"
"CNTRL05","CTRL",138,0.7244,1,"matching TU"
"CNTRL05","CTRL",139,1.176,1,"non-matching SCONOSCIUTO"
"CNTRL05","CTRL",140,0.7202,1,"matching SCONOSCIUTO"
"CNTRL05","CTRL",141,0.8782,1,"matching TU"
"CNTRL05","CTRL",142,0.6517,1,"matching TU"
"CNTRL05","CTRL",143,0.7481,0,"matching SCONOSCIUTO"
"CNTRL05","CTRL",144,1.0912,1,"matching SCONOSCIUTO"
"CNTRL05","CTRL",145,1.2358,1,"non-matching TU"
"CNTRL05","CTRL",146,1.4358,1,"matching SCONOSCIUTO"
"CNTRL05","CTRL",147,0.7043,1,"matching TU"
"CNTRL05","CTRL",148,0.8695,1,"matching TU"
"CNTRL05","CTRL",149,0.7751,0,"non-matching SCONOSCIUTO"
"CNTRL05","CTRL",150,0.7465,1,"non-matching SCONOSCIUTO"
"CNTRL05","CTRL",151,1.0991,1,"matching SCONOSCIUTO"
"CNTRL05","CTRL",152,1.0725,0,"non-matching TU"
"CNTRL05","CTRL",153,0.7359,0,"matching SCONOSCIUTO"
"CNTRL05","CTRL",154,0.7577,1,"matching TU"
"CNTRL05","CTRL",155,1.1238,1,"non-matching TU"
"CNTRL05","CTRL",156,0.9696,1,"matching SCONOSCIUTO"
"CNTRL05","CTRL",157,0.9376,1,"matching TU"
"CNTRL05","CTRL",158,1.0211,0,"non-matching SCONOSCIUTO"
"CNTRL05","CTRL",159,1.0368,1,"non-matching TU"
"CNTRL05","CTRL",160,1.1362,1,"non-matching TU"
"CNTRL05","CTRL",161,1.0636,1,"non-matching SCONOSCIUTO"
"CNTRL05","CTRL",162,0.7494,1,"non-matching SCONOSCIUTO"
"CNTRL05","CTRL",163,1.075,1,"non-matching SCONOSCIUTO"
"CNTRL05","CTRL",164,0.9196,0,"non-matching TU"
"CNTRL05","CTRL",165,0.7257,1,"matching TU"
"CNTRL05","CTRL",166,0.9209,1,"non-matching TU"
"CNTRL05","CTRL",167,1.1118,1,"non-matching SCONOSCIUTO"
"CNTRL05","CTRL",168,0.921,1,"matching TU"
"CNTRL05","CTRL",169,1.4652,1,"matching SCONOSCIUTO"
"CNTRL05","CTRL",170,0.8816,1,"matching SCONOSCIUTO"
"CNTRL05","CTRL",171,0.6758,1,"matching TU"
"CNTRL05","CTRL",172,NA,0,"non-matching TU"
"CNTRL05","CTRL",173,0.9594,1,"non-matching TU"
"CNTRL05","CTRL",174,1.1224,0,"non-matching SCONOSCIUTO"
"CNTRL05","CTRL",175,1.2509,1,"non-matching SCONOSCIUTO"
"CNTRL05","CTRL",176,0.9745,0,"matching SCONOSCIUTO"
"CNTRL05","CTRL",177,0.7129,1,"matching SCONOSCIUTO"
"CNTRL05","CTRL",178,1.2517,1,"non-matching SCONOSCIUTO"
"CNTRL05","CTRL",179,0.9099,1,"non-matching SCONOSCIUTO"
"CNTRL05","CTRL",180,1.0844,1,"matching SCONOSCIUTO"
"CNTRL05","CTRL",181,1.0592,1,"non-matching SCONOSCIUTO"
"CNTRL05","CTRL",182,0.8064,1,"non-matching SCONOSCIUTO"
"CNTRL05","CTRL",183,1.3589,1,"matching SCONOSCIUTO"
"CNTRL05","CTRL",184,0.7769,1,"matching SCONOSCIUTO"
"CNTRL05","CTRL",185,0.9066,1,"non-matching TU"
"CNTRL05","CTRL",186,1.0315,1,"non-matching SCONOSCIUTO"
"CNTRL05","CTRL",187,0.7119,1,"non-matching SCONOSCIUTO"
"CNTRL05","CTRL",188,1.222,1,"non-matching TU"
"CNTRL05","CTRL",189,0.8611,1,"matching TU"
"CNTRL05","CTRL",190,0.8799,1,"non-matching TU"
"CNTRL05","CTRL",191,0.9814,1,"non-matching TU"
"CNTRL05","CTRL",192,0.9842,1,"matching TU"
"CNTRL05","CTRL",193,0.5404,1,"matching TU"
"CNTRL05","CTRL",194,0.6624,1,"matching TU"
"CNTRL05","CTRL",195,0.8563,0,"matching SCONOSCIUTO"
"CNTRL05","CTRL",196,0.5985,0,"non-matching TU"
"CNTRL05","CTRL",197,0.846,0,"matching SCONOSCIUTO"
"CNTRL05","CTRL",198,0.7019,0,"matching SCONOSCIUTO"
"CNTRL05","CTRL",199,0.6464,0,"non-matching SCONOSCIUTO"
"CNTRL05","CTRL",200,0.7945,1,"matching TU"
"CNTRL07","CTRL",1,NA,0,"non-matching SCONOSCIUTO"
"CNTRL07","CTRL",2,NA,0,"non-matching SCONOSCIUTO"
"CNTRL07","CTRL",3,NA,0,"non-matching TU"
"CNTRL07","CTRL",4,NA,0,"non-matching SCONOSCIUTO"
"CNTRL07","CTRL",5,NA,0,"matching TU"
"CNTRL07","CTRL",6,NA,0,"non-matching SCONOSCIUTO"
"CNTRL07","CTRL",7,1.3831,1,"non-matching TU"
"CNTRL07","CTRL",8,0.6518,1,"matching TU"
"CNTRL07","CTRL",9,NA,0,"matching SCONOSCIUTO"
"CNTRL07","CTRL",10,NA,0,"non-matching SCONOSCIUTO"
"CNTRL07","CTRL",11,NA,0,"non-matching SCONOSCIUTO"
"CNTRL07","CTRL",12,NA,0,"matching SCONOSCIUTO"
"CNTRL07","CTRL",13,NA,0,"matching SCONOSCIUTO"
"CNTRL07","CTRL",14,NA,0,"non-matching SCONOSCIUTO"
"CNTRL07","CTRL",15,NA,0,"matching TU"
"CNTRL07","CTRL",16,0.6497,0,"matching SCONOSCIUTO"
"CNTRL07","CTRL",17,0.6349,0,"non-matching TU"
"CNTRL07","CTRL",18,NA,0,"matching SCONOSCIUTO"
"CNTRL07","CTRL",19,0.8281,1,"matching TU"
"CNTRL07","CTRL",20,0.8391,0,"non-matching TU"
"CNTRL07","CTRL",21,0.9526,0,"non-matching TU"
"CNTRL07","CTRL",22,0.8328,1,"non-matching TU"
"CNTRL07","CTRL",23,0.7194,1,"matching TU"
"CNTRL07","CTRL",24,0.8277,0,"matching SCONOSCIUTO"
"CNTRL07","CTRL",25,1.3081,1,"non-matching SCONOSCIUTO"
"CNTRL07","CTRL",26,0.5305,1,"matching TU"
"CNTRL07","CTRL",27,0.6109,0,"non-matching SCONOSCIUTO"
"CNTRL07","CTRL",28,0.8629,1,"matching SCONOSCIUTO"
"CNTRL07","CTRL",29,0.6668,1,"non-matching TU"
"CNTRL07","CTRL",30,0.7316,1,"matching SCONOSCIUTO"
"CNTRL07","CTRL",31,0.4477,0,"non-matching SCONOSCIUTO"
"CNTRL07","CTRL",32,0.5761,1,"non-matching TU"
"CNTRL07","CTRL",33,0.5347,1,"matching SCONOSCIUTO"
"CNTRL07","CTRL",34,0.5049,0,"non-matching SCONOSCIUTO"
"CNTRL07","CTRL",35,1.0952,1,"matching SCONOSCIUTO"
"CNTRL07","CTRL",36,0.5306,1,"non-matching TU"
"CNTRL07","CTRL",37,0.7965,1,"matching TU"
"CNTRL07","CTRL",38,0.5393,0,"non-matching SCONOSCIUTO"
"CNTRL07","CTRL",39,0.9529,0,"non-matching TU"
"CNTRL07","CTRL",40,0.526,1,"non-matching TU"
"CNTRL07","CTRL",41,0.4162,0,"non-matching SCONOSCIUTO"
"CNTRL07","CTRL",42,0.7214,1,"matching TU"
"CNTRL07","CTRL",43,0.7192,0,"non-matching TU"
"CNTRL07","CTRL",44,0.2259,1,"non-matching SCONOSCIUTO"
"CNTRL07","CTRL",45,0.3199,0,"non-matching TU"
"CNTRL07","CTRL",46,0.4388,0,"non-matching SCONOSCIUTO"
"CNTRL07","CTRL",47,0.4584,0,"matching TU"
"CNTRL07","CTRL",48,0.5339,0,"non-matching TU"
"CNTRL07","CTRL",49,0.5507,0,"non-matching TU"
"CNTRL07","CTRL",50,0.789,0,"non-matching SCONOSCIUTO"
"CNTRL07","CTRL",51,0.7448,0,"non-matching TU"
"CNTRL07","CTRL",52,0.8561,1,"non-matching SCONOSCIUTO"
"CNTRL07","CTRL",53,0.9666,1,"non-matching TU"
"CNTRL07","CTRL",54,1.4349,1,"matching SCONOSCIUTO"
"CNTRL07","CTRL",55,1.1662,1,"non-matching TU"
"CNTRL07","CTRL",56,0.9333,1,"matching TU"
"CNTRL07","CTRL",57,0.6509,1,"matching TU"
"CNTRL07","CTRL",58,0.7485,1,"non-matching SCONOSCIUTO"
"CNTRL07","CTRL",59,0.9162,1,"non-matching SCONOSCIUTO"
"CNTRL07","CTRL",60,0.4814,0,"non-matching TU"
"CNTRL07","CTRL",61,0.4829,0,"matching TU"
"CNTRL07","CTRL",62,1.0168,1,"non-matching TU"
"CNTRL07","CTRL",63,1.2655,1,"matching SCONOSCIUTO"
"CNTRL07","CTRL",64,1.5319,0,"matching SCONOSCIUTO"
"CNTRL07","CTRL",65,0.8565,1,"matching TU"
"CNTRL07","CTRL",66,1.18,1,"non-matching TU"
"CNTRL07","CTRL",67,1.3638,1,"matching TU"
"CNTRL07","CTRL",68,0.7873,1,"matching TU"
"CNTRL07","CTRL",69,0.576,1,"matching TU"
"CNTRL07","CTRL",70,0.65,0,"matching SCONOSCIUTO"
"CNTRL07","CTRL",71,0.6168,1,"matching TU"
"CNTRL07","CTRL",72,1.0322,1,"non-matching SCONOSCIUTO"
"CNTRL07","CTRL",73,0.5349,0,"non-matching SCONOSCIUTO"
"CNTRL07","CTRL",74,0.3796,1,"non-matching SCONOSCIUTO"
"CNTRL07","CTRL",75,0.4656,1,"matching TU"
"CNTRL07","CTRL",76,0.6196,1,"matching SCONOSCIUTO"
"CNTRL07","CTRL",77,0.8488,0,"non-matching SCONOSCIUTO"
"CNTRL07","CTRL",78,0.8879,0,"matching SCONOSCIUTO"
"CNTRL07","CTRL",79,1.0043,1,"non-matching TU"
"CNTRL07","CTRL",80,0.7542,0,"non-matching SCONOSCIUTO"
"CNTRL07","CTRL",81,0.7068,1,"matching TU"
"CNTRL07","CTRL",82,0.5837,0,"non-matching TU"
"CNTRL07","CTRL",83,1.1328,0,"matching SCONOSCIUTO"
"CNTRL07","CTRL",84,0.8332,1,"matching TU"
"CNTRL07","CTRL",85,0.9004,0,"matching SCONOSCIUTO"
"CNTRL07","CTRL",86,1.4843,0,"matching SCONOSCIUTO"
"CNTRL07","CTRL",87,1.0985,1,"non-matching TU"
"CNTRL07","CTRL",88,1.3335,1,"non-matching TU"
"CNTRL07","CTRL",89,0.3159,1,"matching TU"
"CNTRL07","CTRL",90,0.9987,1,"matching SCONOSCIUTO"
"CNTRL07","CTRL",91,0.7977,1,"matching SCONOSCIUTO"
"CNTRL07","CTRL",92,0.5672,1,"matching SCONOSCIUTO"
"CNTRL07","CTRL",93,1.153,1,"non-matching SCONOSCIUTO"
"CNTRL07","CTRL",94,0.5158,1,"matching TU"
"CNTRL07","CTRL",95,1.0653,1,"matching SCONOSCIUTO"
"CNTRL07","CTRL",96,0.5038,1,"matching SCONOSCIUTO"
"CNTRL07","CTRL",97,1.0174,1,"non-matching SCONOSCIUTO"
"CNTRL07","CTRL",98,0.7838,1,"matching TU"
"CNTRL07","CTRL",99,1.1122,1,"non-matching TU"
"CNTRL07","CTRL",100,0.6011,1,"matching SCONOSCIUTO"
"CNTRL07","CTRL",101,0.4336,1,"matching SCONOSCIUTO"
"CNTRL07","CTRL",102,0.7456,1,"matching TU"
"CNTRL07","CTRL",103,0.9602,1,"matching SCONOSCIUTO"
"CNTRL07","CTRL",104,0.6841,1,"matching TU"
"CNTRL07","CTRL",105,0.7671,1,"matching TU"
"CNTRL07","CTRL",106,0.5839,0,"non-matching TU"
"CNTRL07","CTRL",107,0.6876,1,"matching SCONOSCIUTO"
"CNTRL07","CTRL",108,1.3511,1,"non-matching SCONOSCIUTO"
"CNTRL07","CTRL",109,1.2515,1,"non-matching SCONOSCIUTO"
"CNTRL07","CTRL",110,0.9866,0,"non-matching TU"
"CNTRL07","CTRL",111,0.8507,1,"matching TU"
"CNTRL07","CTRL",112,NA,0,"non-matching TU"
"CNTRL07","CTRL",113,NA,0,"non-matching SCONOSCIUTO"
"CNTRL07","CTRL",114,NA,0,"non-matching TU"
"CNTRL07","CTRL",115,NA,0,"matching TU"
"CNTRL07","CTRL",116,NA,0,"matching TU"
"CNTRL07","CTRL",117,NA,0,"non-matching SCONOSCIUTO"
"CNTRL07","CTRL",118,NA,0,"matching SCONOSCIUTO"
"CNTRL07","CTRL",119,NA,0,"non-matching SCONOSCIUTO"
"CNTRL07","CTRL",120,NA,0,"matching SCONOSCIUTO"
"CNTRL07","CTRL",121,NA,0,"non-matching SCONOSCIUTO"
"CNTRL07","CTRL",122,NA,0,"matching SCONOSCIUTO"
"CNTRL07","CTRL",123,NA,0,"non-matching SCONOSCIUTO"
"CNTRL07","CTRL",124,NA,0,"non-matching SCONOSCIUTO"
"CNTRL07","CTRL",125,NA,0,"matching TU"
"CNTRL07","CTRL",126,0.2257,0,"non-matching SCONOSCIUTO"
"CNTRL07","CTRL",127,0.684,0,"non-matching SCONOSCIUTO"
"CNTRL07","CTRL",128,0.7211,1,"matching TU"
"CNTRL07","CTRL",129,NA,0,"non-matching SCONOSCIUTO"
"CNTRL07","CTRL",130,0.969,0,"non-matching TU"
"CNTRL07","CTRL",131,1.3497,1,"non-matching TU"
"CNTRL07","CTRL",132,0.6998,0,"non-matching TU"
"CNTRL07","CTRL",133,0.5179,1,"matching TU"
"CNTRL07","CTRL",134,1.074,1,"matching TU"
"CNTRL07","CTRL",135,1.1381,1,"non-matching TU"
"CNTRL07","CTRL",136,0.8508,0,"matching SCONOSCIUTO"
"CNTRL07","CTRL",137,NA,0,"non-matching SCONOSCIUTO"
"CNTRL07","CTRL",138,0.549,1,"matching TU"
"CNTRL07","CTRL",139,0.6845,1,"matching TU"
"CNTRL07","CTRL",140,1.012,1,"non-matching TU"
"CNTRL07","CTRL",141,0.7051,1,"matching SCONOSCIUTO"
"CNTRL07","CTRL",142,0.3947,1,"matching SCONOSCIUTO"
"CNTRL07","CTRL",143,1.2912,1,"non-matching SCONOSCIUTO"
"CNTRL07","CTRL",144,NA,0,"non-matching SCONOSCIUTO"
"CNTRL07","CTRL",145,0.7234,0,"non-matching TU"
"CNTRL07","CTRL",146,0.7649,0,"matching SCONOSCIUTO"
"CNTRL07","CTRL",147,0.9206,1,"non-matching SCONOSCIUTO"
"CNTRL07","CTRL",148,0.4847,1,"matching TU"
"CNTRL07","CTRL",149,0.4712,1,"matching TU"
"CNTRL07","CTRL",150,0.8028,0,"matching SCONOSCIUTO"
"CNTRL07","CTRL",151,NA,0,"matching TU"
"CNTRL07","CTRL",152,NA,0,"matching SCONOSCIUTO"
"CNTRL07","CTRL",153,0.9008,0,"matching SCONOSCIUTO"
"CNTRL07","CTRL",154,0.7323,1,"matching TU"
"CNTRL07","CTRL",155,0.8002,1,"matching SCONOSCIUTO"
"CNTRL07","CTRL",156,0.6685,1,"matching SCONOSCIUTO"
"CNTRL07","CTRL",157,1.1149,1,"non-matching TU"
"CNTRL07","CTRL",158,0.367,0,"non-matching SCONOSCIUTO"
"CNTRL07","CTRL",159,0.9678,1,"non-matching SCONOSCIUTO"
"CNTRL07","CTRL",160,0.6167,0,"non-matching TU"
"CNTRL07","CTRL",161,0.658,1,"matching TU"
"CNTRL07","CTRL",162,1.2842,1,"non-matching SCONOSCIUTO"
"CNTRL07","CTRL",163,0.6944,0,"non-matching TU"
"CNTRL07","CTRL",164,0.4006,0,"non-matching SCONOSCIUTO"
"CNTRL07","CTRL",165,1.0655,0,"matching SCONOSCIUTO"
"CNTRL07","CTRL",166,0.6794,0,"non-matching TU"
"CNTRL07","CTRL",167,1.1386,1,"non-matching TU"
"CNTRL07","CTRL",168,0.9757,0,"matching SCONOSCIUTO"
"CNTRL07","CTRL",169,0.8183,0,"non-matching TU"
"CNTRL07","CTRL",170,0.8338,1,"non-matching TU"
"CNTRL07","CTRL",171,0.3915,0,"non-matching SCONOSCIUTO"
"CNTRL07","CTRL",172,0.5404,1,"matching TU"
"CNTRL07","CTRL",173,0.7829,0,"matching SCONOSCIUTO"
"CNTRL07","CTRL",174,0.7348,1,"matching SCONOSCIUTO"
"CNTRL07","CTRL",175,0.7473,1,"matching TU"
"CNTRL07","CTRL",176,0.8055,1,"non-matching SCONOSCIUTO"
"CNTRL07","CTRL",177,0.6379,1,"matching TU"
"CNTRL07","CTRL",178,0.7999,1,"non-matching TU"
"CNTRL07","CTRL",179,0.6734,1,"matching TU"
"CNTRL07","CTRL",180,0.7369,0,"non-matching TU"
"CNTRL07","CTRL",181,0.8506,1,"non-matching TU"
"CNTRL07","CTRL",182,0.6185,1,"matching SCONOSCIUTO"
"CNTRL07","CTRL",183,1.0401,1,"matching SCONOSCIUTO"
"CNTRL07","CTRL",184,0.8906,1,"non-matching SCONOSCIUTO"
"CNTRL07","CTRL",185,0.3661,1,"matching TU"
"CNTRL07","CTRL",186,0.9657,1,"non-matching TU"
"CNTRL07","CTRL",187,0.8205,0,"non-matching SCONOSCIUTO"
"CNTRL07","CTRL",188,0.4848,1,"matching TU"
"CNTRL07","CTRL",189,0.767,1,"non-matching SCONOSCIUTO"
"CNTRL07","CTRL",190,0.8278,1,"matching TU"
"CNTRL07","CTRL",191,0.3675,0,"matching TU"
"CNTRL07","CTRL",192,0.8092,1,"non-matching TU"
"CNTRL07","CTRL",193,1.0366,1,"matching SCONOSCIUTO"
"CNTRL07","CTRL",194,0.9497,1,"non-matching TU"
"CNTRL07","CTRL",195,1.235,1,"non-matching TU"
"CNTRL07","CTRL",196,1.234,0,"matching SCONOSCIUTO"
"CNTRL07","CTRL",197,1.0721,1,"matching SCONOSCIUTO"
"CNTRL07","CTRL",198,0.8421,1,"matching TU"
"CNTRL07","CTRL",199,0.4689,1,"matching TU"
"CNTRL07","CTRL",200,0.7141,1,"matching SCONOSCIUTO"
"CNTRL08","CTRL",1,NA,0,"matching TU"
"CNTRL08","CTRL",2,0.8,1,"matching TU"
"CNTRL08","CTRL",3,0.7483,1,"matching TU"
"CNTRL08","CTRL",4,0.4727,1,"matching TU"
"CNTRL08","CTRL",5,0.4164,1,"non-matching TU"
"CNTRL08","CTRL",6,0.8574,1,"non-matching SCONOSCIUTO"
"CNTRL08","CTRL",7,0.8158,1,"non-matching TU"
"CNTRL08","CTRL",8,0.9678,1,"matching SCONOSCIUTO"
"CNTRL08","CTRL",9,0.6447,1,"matching TU"
"CNTRL08","CTRL",10,0.6042,1,"non-matching SCONOSCIUTO"
"CNTRL08","CTRL",11,0.4819,1,"matching TU"
"CNTRL08","CTRL",12,0.756,1,"non-matching TU"
"CNTRL08","CTRL",13,0.7967,1,"non-matching SCONOSCIUTO"
"CNTRL08","CTRL",14,0.7,0,"non-matching TU"
"CNTRL08","CTRL",15,0.8752,1,"non-matching SCONOSCIUTO"
"CNTRL08","CTRL",16,0.6754,1,"non-matching TU"
"CNTRL08","CTRL",17,0.8817,1,"non-matching TU"
"CNTRL08","CTRL",18,0.3956,1,"matching TU"
"CNTRL08","CTRL",19,0.9624,1,"matching TU"
"CNTRL08","CTRL",20,0.6021,1,"matching TU"
"CNTRL08","CTRL",21,0.6877,1,"non-matching TU"
"CNTRL08","CTRL",22,1.1299,1,"matching SCONOSCIUTO"
"CNTRL08","CTRL",23,0.7712,1,"non-matching TU"
"CNTRL08","CTRL",24,0.8305,1,"non-matching TU"
"CNTRL08","CTRL",25,0.3994,1,"matching TU"
"CNTRL08","CTRL",26,0.8585,1,"matching SCONOSCIUTO"
"CNTRL08","CTRL",27,0.7947,1,"non-matching TU"
"CNTRL08","CTRL",28,0.7444,1,"non-matching SCONOSCIUTO"
"CNTRL08","CTRL",29,0.9466,1,"matching SCONOSCIUTO"
"CNTRL08","CTRL",30,0.427,1,"matching TU"
"CNTRL08","CTRL",31,1.1442,1,"non-matching TU"
"CNTRL08","CTRL",32,0.5456,1,"matching TU"
"CNTRL08","CTRL",33,0.921,1,"matching TU"
"CNTRL08","CTRL",34,0.9881,1,"matching SCONOSCIUTO"
"CNTRL08","CTRL",35,0.9148,1,"non-matching SCONOSCIUTO"
"CNTRL08","CTRL",36,0.7499,1,"non-matching TU"
"CNTRL08","CTRL",37,0.6659,1,"matching TU"
"CNTRL08","CTRL",38,0.7128,1,"matching SCONOSCIUTO"
"CNTRL08","CTRL",39,1.0641,1,"matching SCONOSCIUTO"
"CNTRL08","CTRL",40,0.6803,1,"non-matching SCONOSCIUTO"
"CNTRL08","CTRL",41,1.0276,0,"non-matching TU"
"CNTRL08","CTRL",42,0.9269,1,"matching SCONOSCIUTO"
"CNTRL08","CTRL",43,1.1543,1,"non-matching SCONOSCIUTO"
"CNTRL08","CTRL",44,1.0498,1,"non-matching TU"
"CNTRL08","CTRL",45,0.563,1,"matching TU"
"CNTRL08","CTRL",46,1.3242,1,"non-matching SCONOSCIUTO"
"CNTRL08","CTRL",47,0.7241,1,"non-matching TU"
"CNTRL08","CTRL",48,0.5816,1,"matching TU"
"CNTRL08","CTRL",49,0.823,1,"non-matching TU"
"CNTRL08","CTRL",50,0.7942,1,"non-matching TU"
"CNTRL08","CTRL",51,1.0577,1,"non-matching TU"
"CNTRL08","CTRL",52,0.9595,1,"matching SCONOSCIUTO"
"CNTRL08","CTRL",53,0.7224,1,"matching TU"
"CNTRL08","CTRL",54,0.7777,1,"non-matching SCONOSCIUTO"
"CNTRL08","CTRL",55,0.7013,1,"matching SCONOSCIUTO"
"CNTRL08","CTRL",56,0.9521,1,"non-matching SCONOSCIUTO"
"CNTRL08","CTRL",57,0.7694,1,"matching TU"
"CNTRL08","CTRL",58,1.2451,1,"non-matching SCONOSCIUTO"
"CNTRL08","CTRL",59,0.6107,1,"matching TU"
"CNTRL08","CTRL",60,0.6997,1,"matching TU"
"CNTRL08","CTRL",61,0.7166,1,"matching TU"
"CNTRL08","CTRL",62,0.7614,1,"non-matching TU"
"CNTRL08","CTRL",63,0.4483,1,"matching TU"
"CNTRL08","CTRL",64,0.6531,1,"matching SCONOSCIUTO"
"CNTRL08","CTRL",65,0.6204,1,"non-matching TU"
"CNTRL08","CTRL",66,0.6537,1,"matching TU"
"CNTRL08","CTRL",67,0.7387,1,"non-matching TU"
"CNTRL08","CTRL",68,1.3827,1,"non-matching SCONOSCIUTO"
"CNTRL08","CTRL",69,0.9897,1,"matching SCONOSCIUTO"
"CNTRL08","CTRL",70,1.0222,1,"non-matching SCONOSCIUTO"
"CNTRL08","CTRL",71,0.4875,1,"matching TU"
"CNTRL08","CTRL",72,0.582,1,"matching TU"
"CNTRL08","CTRL",73,0.8012,1,"non-matching SCONOSCIUTO"
"CNTRL08","CTRL",74,0.8094,1,"matching SCONOSCIUTO"
"CNTRL08","CTRL",75,0.6222,1,"matching TU"
"CNTRL08","CTRL",76,1.1093,1,"matching SCONOSCIUTO"
"CNTRL08","CTRL",77,0.7812,1,"matching TU"
"CNTRL08","CTRL",78,0.8613,1,"matching SCONOSCIUTO"
"CNTRL08","CTRL",79,0.7407,1,"non-matching SCONOSCIUTO"
"CNTRL08","CTRL",80,1.112,1,"matching SCONOSCIUTO"
"CNTRL08","CTRL",81,0.89,1,"non-matching TU"
"CNTRL08","CTRL",82,1.1356,1,"non-matching SCONOSCIUTO"
"CNTRL08","CTRL",83,0.694,1,"matching SCONOSCIUTO"
"CNTRL08","CTRL",84,0.7102,1,"non-matching SCONOSCIUTO"
"CNTRL08","CTRL",85,0.9258,1,"matching SCONOSCIUTO"
"CNTRL08","CTRL",86,0.9452,1,"non-matching TU"
"CNTRL08","CTRL",87,0.8261,1,"non-matching SCONOSCIUTO"
"CNTRL08","CTRL",88,0.9179,1,"non-matching TU"
"CNTRL08","CTRL",89,0.4436,1,"matching TU"
"CNTRL08","CTRL",90,0.7741,1,"matching SCONOSCIUTO"
"CNTRL08","CTRL",91,0.7262,1,"non-matching SCONOSCIUTO"
"CNTRL08","CTRL",92,1.0012,1,"non-matching SCONOSCIUTO"
"CNTRL08","CTRL",93,0.6423,1,"non-matching SCONOSCIUTO"
"CNTRL08","CTRL",94,0.6396,1,"non-matching SCONOSCIUTO"
"CNTRL08","CTRL",95,0.8851,1,"non-matching TU"
"CNTRL08","CTRL",96,0.7102,1,"matching TU"
"CNTRL08","CTRL",97,0.7627,1,"matching TU"
"CNTRL08","CTRL",98,0.7966,1,"non-matching SCONOSCIUTO"
"CNTRL08","CTRL",99,0.9791,1,"non-matching TU"
"CNTRL08","CTRL",100,0.737,1,"non-matching TU"
"CNTRL08","CTRL",101,0.4693,1,"matching TU"
"CNTRL08","CTRL",102,0.7329,1,"matching SCONOSCIUTO"
"CNTRL08","CTRL",103,1.3684,1,"matching SCONOSCIUTO"
"CNTRL08","CTRL",104,0.6953,1,"matching TU"
"CNTRL08","CTRL",105,0.6885,1,"matching TU"
"CNTRL08","CTRL",106,0.9268,1,"non-matching TU"
"CNTRL08","CTRL",107,0.7272,1,"non-matching SCONOSCIUTO"
"CNTRL08","CTRL",108,0.7758,1,"matching SCONOSCIUTO"
"CNTRL08","CTRL",109,0.6434,1,"non-matching SCONOSCIUTO"
"CNTRL08","CTRL",110,0.9617,1,"non-matching TU"
"CNTRL08","CTRL",111,1.0422,1,"non-matching SCONOSCIUTO"
"CNTRL08","CTRL",112,0.5335,1,"matching TU"
"CNTRL08","CTRL",113,0.5171,1,"matching TU"
"CNTRL08","CTRL",114,0.5197,1,"matching TU"
"CNTRL08","CTRL",115,0.485,1,"matching SCONOSCIUTO"
"CNTRL08","CTRL",116,0.8637,1,"matching SCONOSCIUTO"
"CNTRL08","CTRL",117,0.7018,1,"non-matching SCONOSCIUTO"
"CNTRL08","CTRL",118,0.7988,1,"non-matching TU"
"CNTRL08","CTRL",119,0.8767,1,"non-matching TU"
"CNTRL08","CTRL",120,1.3569,1,"matching SCONOSCIUTO"
"CNTRL08","CTRL",121,0.7193,1,"matching SCONOSCIUTO"
"CNTRL08","CTRL",122,0.7389,1,"non-matching TU"
"CNTRL08","CTRL",123,0.7087,1,"non-matching TU"
"CNTRL08","CTRL",124,0.8003,1,"matching SCONOSCIUTO"
"CNTRL08","CTRL",125,0.6113,1,"non-matching TU"
"CNTRL08","CTRL",126,0.7396,1,"matching SCONOSCIUTO"
"CNTRL08","CTRL",127,0.7105,1,"matching TU"
"CNTRL08","CTRL",128,0.6336,1,"non-matching TU"
"CNTRL08","CTRL",129,0.9332,1,"non-matching SCONOSCIUTO"
"CNTRL08","CTRL",130,0.5491,1,"matching TU"
"CNTRL08","CTRL",131,0.8091,1,"non-matching TU"
"CNTRL08","CTRL",132,0.8593,1,"matching SCONOSCIUTO"
"CNTRL08","CTRL",133,0.5788,1,"matching TU"
"CNTRL08","CTRL",134,0.5033,1,"matching TU"
"CNTRL08","CTRL",135,0.5262,1,"matching TU"
"CNTRL08","CTRL",136,0.7145,1,"matching SCONOSCIUTO"
"CNTRL08","CTRL",137,0.9934,1,"non-matching SCONOSCIUTO"
"CNTRL08","CTRL",138,1.1422,1,"non-matching TU"
"CNTRL08","CTRL",139,0.8156,1,"matching TU"
"CNTRL08","CTRL",140,0.8533,1,"non-matching SCONOSCIUTO"
"CNTRL08","CTRL",141,0.6849,1,"non-matching SCONOSCIUTO"
"CNTRL08","CTRL",142,0.7293,1,"non-matching TU"
"CNTRL08","CTRL",143,0.8806,1,"non-matching TU"
"CNTRL08","CTRL",144,0.6298,1,"non-matching TU"
"CNTRL08","CTRL",145,0.8234,1,"matching TU"
"CNTRL08","CTRL",146,0.5811,1,"matching TU"
"CNTRL08","CTRL",147,0.8582,1,"matching SCONOSCIUTO"
"CNTRL08","CTRL",148,0.5877,1,"non-matching SCONOSCIUTO"
"CNTRL08","CTRL",149,0.6175,1,"non-matching SCONOSCIUTO"
"CNTRL08","CTRL",150,0.4888,1,"matching TU"
"CNTRL08","CTRL",151,0.6957,1,"matching SCONOSCIUTO"
"CNTRL08","CTRL",152,0.7087,1,"non-matching TU"
"CNTRL08","CTRL",153,0.7966,1,"non-matching TU"
"CNTRL08","CTRL",154,0.9226,1,"matching SCONOSCIUTO"
"CNTRL08","CTRL",155,0.6623,1,"matching TU"
"CNTRL08","CTRL",156,0.6934,1,"matching SCONOSCIUTO"
"CNTRL08","CTRL",157,0.9823,1,"matching SCONOSCIUTO"
"CNTRL08","CTRL",158,0.7188,1,"matching SCONOSCIUTO"
"CNTRL08","CTRL",159,0.7584,1,"matching SCONOSCIUTO"
"CNTRL08","CTRL",160,0.5523,1,"matching TU"
"CNTRL08","CTRL",161,0.6788,1,"non-matching SCONOSCIUTO"
"CNTRL08","CTRL",162,0.8634,1,"non-matching TU"
"CNTRL08","CTRL",163,0.9162,1,"non-matching TU"
"CNTRL08","CTRL",164,1.2878,1,"matching SCONOSCIUTO"
"CNTRL08","CTRL",165,0.6524,1,"non-matching SCONOSCIUTO"
"CNTRL08","CTRL",166,0.7389,1,"non-matching SCONOSCIUTO"
"CNTRL08","CTRL",167,0.8856,1,"matching SCONOSCIUTO"
"CNTRL08","CTRL",168,1.0536,1,"matching SCONOSCIUTO"
"CNTRL08","CTRL",169,0.7885,1,"matching SCONOSCIUTO"
"CNTRL08","CTRL",170,0.6785,1,"non-matching SCONOSCIUTO"
"CNTRL08","CTRL",171,1.0931,1,"non-matching TU"
"CNTRL08","CTRL",172,0.6832,1,"matching SCONOSCIUTO"
"CNTRL08","CTRL",173,0.6863,1,"non-matching SCONOSCIUTO"
"CNTRL08","CTRL",174,0.6477,1,"matching SCONOSCIUTO"
"CNTRL08","CTRL",175,0.6861,1,"non-matching SCONOSCIUTO"
"CNTRL08","CTRL",176,0.9016,1,"non-matching TU"
"CNTRL08","CTRL",177,0.8213,1,"non-matching TU"
"CNTRL08","CTRL",178,0.8334,1,"non-matching SCONOSCIUTO"
"CNTRL08","CTRL",179,0.9003,1,"matching SCONOSCIUTO"
"CNTRL08","CTRL",180,0.7284,1,"matching SCONOSCIUTO"
"CNTRL08","CTRL",181,0.7313,1,"non-matching SCONOSCIUTO"
"CNTRL08","CTRL",182,1.0604,1,"non-matching SCONOSCIUTO"
"CNTRL08","CTRL",183,0.6995,1,"non-matching SCONOSCIUTO"
"CNTRL08","CTRL",184,0.7286,1,"matching SCONOSCIUTO"
"CNTRL08","CTRL",185,0.9174,1,"matching SCONOSCIUTO"
"CNTRL08","CTRL",186,0.5351,1,"matching SCONOSCIUTO"
"CNTRL08","CTRL",187,0.6757,1,"matching SCONOSCIUTO"
"CNTRL08","CTRL",188,0.7801,1,"non-matching SCONOSCIUTO"
"CNTRL08","CTRL",189,0.65,1,"non-matching SCONOSCIUTO"
"CNTRL08","CTRL",190,0.6376,1,"non-matching SCONOSCIUTO"
"CNTRL08","CTRL",191,0.5499,1,"matching TU"
"CNTRL08","CTRL",192,0.7087,1,"non-matching TU"
"CNTRL08","CTRL",193,0.8968,1,"non-matching SCONOSCIUTO"
"CNTRL08","CTRL",194,0.8983,1,"non-matching TU"
"CNTRL08","CTRL",195,0.6468,1,"non-matching SCONOSCIUTO"
"CNTRL08","CTRL",196,0.7234,1,"non-matching SCONOSCIUTO"
"CNTRL08","CTRL",197,0.7521,1,"matching TU"
"CNTRL08","CTRL",198,0.6343,1,"non-matching TU"
"CNTRL08","CTRL",199,0.4558,1,"matching TU"
"CNTRL08","CTRL",200,0.9678,1,"matching SCONOSCIUTO"
"CNTRL09","CTRL",1,NA,0,"non-matching TU"
"CNTRL09","CTRL",2,NA,0,"non-matching TU"
"CNTRL09","CTRL",3,1.1544,0,"matching TU"
"CNTRL09","CTRL",4,0.8598,1,"non-matching TU"
"CNTRL09","CTRL",5,0.7761,0,"non-matching TU"
"CNTRL09","CTRL",6,0.9536,0,"non-matching TU"
"CNTRL09","CTRL",7,0.6016,0,"matching SCONOSCIUTO"
"CNTRL09","CTRL",8,0.9394,0,"matching TU"
"CNTRL09","CTRL",9,1.1447,1,"matching SCONOSCIUTO"
"CNTRL09","CTRL",10,NA,0,"matching SCONOSCIUTO"
"CNTRL09","CTRL",11,NA,0,"matching SCONOSCIUTO"
"CNTRL09","CTRL",12,1.3378,1,"non-matching TU"
"CNTRL09","CTRL",13,NA,0,"matching SCONOSCIUTO"
"CNTRL09","CTRL",14,0.9947,0,"matching SCONOSCIUTO"
"CNTRL09","CTRL",15,NA,0,"non-matching SCONOSCIUTO"
"CNTRL09","CTRL",16,0.9404,1,"matching TU"
"CNTRL09","CTRL",17,1.2288,1,"non-matching TU"
"CNTRL09","CTRL",18,NA,0,"matching SCONOSCIUTO"
"CNTRL09","CTRL",19,NA,0,"matching TU"
"CNTRL09","CTRL",20,1.3364,0,"non-matching SCONOSCIUTO"
"CNTRL09","CTRL",21,1.1748,1,"non-matching TU"
"CNTRL09","CTRL",22,0.744,0,"non-matching TU"
"CNTRL09","CTRL",23,1.0414,0,"non-matching SCONOSCIUTO"
"CNTRL09","CTRL",24,NA,0,"matching SCONOSCIUTO"
"CNTRL09","CTRL",25,0.7996,1,"matching TU"
"CNTRL09","CTRL",26,0.6334,1,"non-matching SCONOSCIUTO"
"CNTRL09","CTRL",27,1.0654,1,"matching TU"
"CNTRL09","CTRL",28,1.4081,0,"matching SCONOSCIUTO"
"CNTRL09","CTRL",29,1.1722,1,"non-matching TU"
"CNTRL09","CTRL",30,NA,0,"matching SCONOSCIUTO"
"CNTRL09","CTRL",31,NA,0,"non-matching SCONOSCIUTO"
"CNTRL09","CTRL",32,1.553,1,"non-matching SCONOSCIUTO"
"CNTRL09","CTRL",33,1.4363,1,"matching SCONOSCIUTO"
"CNTRL09","CTRL",34,0.8118,0,"non-matching TU"
"CNTRL09","CTRL",35,1.023,0,"matching TU"
"CNTRL09","CTRL",36,NA,0,"non-matching TU"
"CNTRL09","CTRL",37,NA,0,"non-matching SCONOSCIUTO"
"CNTRL09","CTRL",38,1.4937,1,"non-matching TU"
"CNTRL09","CTRL",39,NA,0,"non-matching SCONOSCIUTO"
"CNTRL09","CTRL",40,1.1645,1,"matching SCONOSCIUTO"
"CNTRL09","CTRL",41,0.7515,1,"non-matching SCONOSCIUTO"
"CNTRL09","CTRL",42,1.1456,0,"non-matching TU"
"CNTRL09","CTRL",43,NA,0,"matching SCONOSCIUTO"
"CNTRL09","CTRL",44,1.3516,1,"matching SCONOSCIUTO"
"CNTRL09","CTRL",45,0.8462,0,"matching TU"
"CNTRL09","CTRL",46,0.7983,1,"matching TU"
"CNTRL09","CTRL",47,0.8714,1,"non-matching SCONOSCIUTO"
"CNTRL09","CTRL",48,0.9309,0,"matching SCONOSCIUTO"
"CNTRL09","CTRL",49,1.0397,1,"matching SCONOSCIUTO"
"CNTRL09","CTRL",50,1.2014,1,"matching SCONOSCIUTO"
"CNTRL09","CTRL",51,1.0966,0,"non-matching TU"
"CNTRL09","CTRL",52,NA,0,"matching SCONOSCIUTO"
"CNTRL09","CTRL",53,1.3877,0,"non-matching SCONOSCIUTO"
"CNTRL09","CTRL",54,1.0388,1,"matching TU"
"CNTRL09","CTRL",55,0.7405,1,"non-matching SCONOSCIUTO"
"CNTRL09","CTRL",56,0.8207,1,"matching TU"
"CNTRL09","CTRL",57,NA,0,"matching SCONOSCIUTO"
"CNTRL09","CTRL",58,1.5049,0,"non-matching SCONOSCIUTO"
"CNTRL09","CTRL",59,NA,0,"matching TU"
"CNTRL09","CTRL",60,1.0717,1,"matching TU"
"CNTRL09","CTRL",61,0.7556,1,"non-matching TU"
"CNTRL09","CTRL",62,0.8899,1,"matching SCONOSCIUTO"
"CNTRL09","CTRL",63,NA,0,"non-matching SCONOSCIUTO"
"CNTRL09","CTRL",64,0.8663,0,"matching TU"
"CNTRL09","CTRL",65,1.3891,1,"matching SCONOSCIUTO"
"CNTRL09","CTRL",66,0.8478,0,"non-matching SCONOSCIUTO"
"CNTRL09","CTRL",67,0.9527,0,"matching SCONOSCIUTO"
"CNTRL09","CTRL",68,NA,0,"non-matching TU"
"CNTRL09","CTRL",69,NA,0,"non-matching SCONOSCIUTO"
"CNTRL09","CTRL",70,1.3904,1,"matching SCONOSCIUTO"
"CNTRL09","CTRL",71,1.2672,1,"non-matching SCONOSCIUTO"
"CNTRL09","CTRL",72,0.8735,1,"matching TU"
"CNTRL09","CTRL",73,0.9849,1,"non-matching SCONOSCIUTO"
"CNTRL09","CTRL",74,1.1824,1,"non-matching TU"
"CNTRL09","CTRL",75,1.0153,1,"non-matching TU"
"CNTRL09","CTRL",76,1.2147,1,"matching SCONOSCIUTO"
"CNTRL09","CTRL",77,0.9389,0,"non-matching SCONOSCIUTO"
"CNTRL09","CTRL",78,NA,0,"matching SCONOSCIUTO"
"CNTRL09","CTRL",79,1.3202,1,"non-matching SCONOSCIUTO"
"CNTRL09","CTRL",80,NA,0,"matching SCONOSCIUTO"
"CNTRL09","CTRL",81,1.0355,0,"non-matching SCONOSCIUTO"
"CNTRL09","CTRL",82,0.3988,1,"matching SCONOSCIUTO"
"CNTRL09","CTRL",83,0.835,0,"matching SCONOSCIUTO"
"CNTRL09","CTRL",84,1.1169,1,"matching TU"
"CNTRL09","CTRL",85,0.7963,1,"matching TU"
"CNTRL09","CTRL",86,0.7857,0,"matching SCONOSCIUTO"
"CNTRL09","CTRL",87,0.6747,1,"matching TU"
"CNTRL09","CTRL",88,0.7515,0,"matching TU"
"CNTRL09","CTRL",89,0.8817,1,"non-matching SCONOSCIUTO"
"CNTRL09","CTRL",90,0.617,1,"matching TU"
"CNTRL09","CTRL",91,0.6536,1,"non-matching TU"
"CNTRL09","CTRL",92,0.7936,1,"matching TU"
"CNTRL09","CTRL",93,0.7903,1,"non-matching SCONOSCIUTO"
"CNTRL09","CTRL",94,0.5565,1,"matching TU"
"CNTRL09","CTRL",95,0.8938,1,"matching TU"
"CNTRL09","CTRL",96,0.6656,1,"non-matching SCONOSCIUTO"
"CNTRL09","CTRL",97,0.9122,1,"non-matching TU"
"CNTRL09","CTRL",98,1.4192,1,"matching SCONOSCIUTO"
"CNTRL09","CTRL",99,1.3047,0,"non-matching SCONOSCIUTO"
"CNTRL09","CTRL",100,NA,0,"matching SCONOSCIUTO"
"CNTRL09","CTRL",101,NA,0,"matching SCONOSCIUTO"
"CNTRL09","CTRL",102,0.7824,0,"matching TU"
"CNTRL09","CTRL",103,0.7679,1,"matching TU"
"CNTRL09","CTRL",104,0.5882,1,"matching TU"
"CNTRL09","CTRL",105,0.6188,1,"non-matching SCONOSCIUTO"
"CNTRL09","CTRL",106,0.727,1,"non-matching SCONOSCIUTO"
"CNTRL09","CTRL",107,0.6052,1,"matching TU"
"CNTRL09","CTRL",108,1.0613,1,"non-matching SCONOSCIUTO"
"CNTRL09","CTRL",109,0.9249,1,"non-matching TU"
"CNTRL09","CTRL",110,0.6151,1,"matching TU"
"CNTRL09","CTRL",111,0.6028,1,"non-matching SCONOSCIUTO"
"CNTRL09","CTRL",112,0.7633,1,"non-matching TU"
"CNTRL09","CTRL",113,0.6373,1,"non-matching TU"
"CNTRL09","CTRL",114,0.6443,1,"matching TU"
"CNTRL09","CTRL",115,0.9162,0,"matching SCONOSCIUTO"
"CNTRL09","CTRL",116,0.7989,1,"matching SCONOSCIUTO"
"CNTRL09","CTRL",117,0.7304,1,"matching TU"
"CNTRL09","CTRL",118,1.0916,1,"matching TU"
"CNTRL09","CTRL",119,1.1075,1,"non-matching TU"
"CNTRL09","CTRL",120,0.8453,1,"matching TU"
"CNTRL09","CTRL",121,0.7123,0,"matching SCONOSCIUTO"
"CNTRL09","CTRL",122,1.1514,1,"non-matching TU"
"CNTRL09","CTRL",123,0.6774,1,"non-matching TU"
"CNTRL09","CTRL",124,0.4968,1,"non-matching TU"
"CNTRL09","CTRL",125,0.5899,1,"matching SCONOSCIUTO"
"CNTRL09","CTRL",126,0.6458,0,"matching TU"
"CNTRL09","CTRL",127,1.4726,1,"non-matching TU"
"CNTRL09","CTRL",128,0.9517,1,"non-matching SCONOSCIUTO"
"CNTRL09","CTRL",129,0.6851,1,"non-matching SCONOSCIUTO"
"CNTRL09","CTRL",130,0.5347,1,"non-matching SCONOSCIUTO"
"CNTRL09","CTRL",131,0.4533,1,"non-matching SCONOSCIUTO"
"CNTRL09","CTRL",132,0.5762,1,"matching TU"
"CNTRL09","CTRL",133,1.2272,1,"matching SCONOSCIUTO"
"CNTRL09","CTRL",134,0.8307,1,"matching SCONOSCIUTO"
"CNTRL09","CTRL",135,0.4661,1,"matching TU"
"CNTRL09","CTRL",136,0.5508,1,"non-matching SCONOSCIUTO"
"CNTRL09","CTRL",137,0.6137,0,"matching SCONOSCIUTO"
"CNTRL09","CTRL",138,0.9855,1,"non-matching TU"
"CNTRL09","CTRL",139,0.572,1,"non-matching TU"
"CNTRL09","CTRL",140,0.4503,1,"non-matching TU"
"CNTRL09","CTRL",141,0.4088,1,"matching TU"
"CNTRL09","CTRL",142,0.6346,1,"non-matching TU"
"CNTRL09","CTRL",143,0.6172,0,"non-matching SCONOSCIUTO"
"CNTRL09","CTRL",144,1.0276,0,"matching SCONOSCIUTO"
"CNTRL09","CTRL",145,0.8796,1,"matching SCONOSCIUTO"
"CNTRL09","CTRL",146,0.8209,1,"non-matching SCONOSCIUTO"
"CNTRL09","CTRL",147,0.8484,1,"non-matching TU"
"CNTRL09","CTRL",148,0.8938,1,"non-matching SCONOSCIUTO"
"CNTRL09","CTRL",149,0.5283,1,"non-matching SCONOSCIUTO"
"CNTRL09","CTRL",150,0.9884,1,"matching SCONOSCIUTO"
"CNTRL09","CTRL",151,0.8332,1,"non-matching TU"
"CNTRL09","CTRL",152,1.241,1,"non-matching TU"
"CNTRL09","CTRL",153,0.599,1,"non-matching TU"
"CNTRL09","CTRL",154,0.6463,0,"non-matching SCONOSCIUTO"
"CNTRL09","CTRL",155,0.9901,1,"non-matching SCONOSCIUTO"
"CNTRL09","CTRL",156,0.9647,1,"non-matching TU"
"CNTRL09","CTRL",157,0.4769,1,"non-matching TU"
"CNTRL09","CTRL",158,0.5161,1,"matching TU"
"CNTRL09","CTRL",159,0.5296,1,"matching TU"
"CNTRL09","CTRL",160,0.8747,1,"matching SCONOSCIUTO"
"CNTRL09","CTRL",161,0.9871,1,"non-matching SCONOSCIUTO"
"CNTRL09","CTRL",162,0.6806,1,"matching TU"
"CNTRL09","CTRL",163,0.5819,1,"matching TU"
"CNTRL09","CTRL",164,0.6101,0,"matching SCONOSCIUTO"
"CNTRL09","CTRL",165,0.78,1,"matching SCONOSCIUTO"
"CNTRL09","CTRL",166,0.8356,1,"non-matching SCONOSCIUTO"
"CNTRL09","CTRL",167,0.6833,1,"matching TU"
"CNTRL09","CTRL",168,0.9956,1,"non-matching TU"
"CNTRL09","CTRL",169,0.8651,0,"non-matching SCONOSCIUTO"
"CNTRL09","CTRL",170,0.9171,1,"non-matching SCONOSCIUTO"
"CNTRL09","CTRL",171,NA,0,"non-matching TU"
"CNTRL09","CTRL",172,NA,0,"non-matching TU"
"CNTRL09","CTRL",173,NA,0,"matching SCONOSCIUTO"
"CNTRL09","CTRL",174,0.8757,1,"matching TU"
"CNTRL09","CTRL",175,0.6821,1,"non-matching SCONOSCIUTO"
"CNTRL09","CTRL",176,0.9621,1,"matching SCONOSCIUTO"
"CNTRL09","CTRL",177,0.7508,1,"non-matching TU"
"CNTRL09","CTRL",178,1.469,1,"non-matching TU"
"CNTRL09","CTRL",179,0.6986,1,"matching TU"
"CNTRL09","CTRL",180,0.6425,1,"matching TU"
"CNTRL09","CTRL",181,0.618,1,"non-matching TU"
"CNTRL09","CTRL",182,0.8344,1,"matching SCONOSCIUTO"
"CNTRL09","CTRL",183,0.7477,1,"non-matching SCONOSCIUTO"
"CNTRL09","CTRL",184,0.8225,1,"non-matching SCONOSCIUTO"
"CNTRL09","CTRL",185,0.9639,1,"non-matching TU"
"CNTRL09","CTRL",186,0.6279,1,"matching TU"
"CNTRL09","CTRL",187,0.7557,1,"non-matching TU"
"CNTRL09","CTRL",188,0.7787,1,"non-matching TU"
"CNTRL09","CTRL",189,0.5584,1,"matching TU"
"CNTRL09","CTRL",190,0.8688,1,"non-matching SCONOSCIUTO"
"CNTRL09","CTRL",191,0.881,1,"non-matching SCONOSCIUTO"
"CNTRL09","CTRL",192,0.7133,1,"matching SCONOSCIUTO"
"CNTRL09","CTRL",193,0.7007,1,"matching TU"
"CNTRL09","CTRL",194,0.433,0,"non-matching SCONOSCIUTO"
"CNTRL09","CTRL",195,1.208,1,"matching TU"
"CNTRL09","CTRL",196,0.543,1,"matching TU"
"CNTRL09","CTRL",197,0.5325,1,"non-matching TU"
"CNTRL09","CTRL",198,0.8497,1,"non-matching TU"
"CNTRL09","CTRL",199,0.5905,1,"matching TU"
"CNTRL09","CTRL",200,0.4926,0,"matching SCONOSCIUTO"
"CNTRL10","CTRL",1,0.7375,1,"matching TU"
"CNTRL10","CTRL",2,0.7937,0,"matching SCONOSCIUTO"
"CNTRL10","CTRL",3,1.3037,1,"matching SCONOSCIUTO"
"CNTRL10","CTRL",4,NA,0,"matching SCONOSCIUTO"
"CNTRL10","CTRL",5,0.9792,1,"matching TU"
"CNTRL10","CTRL",6,1.0655,1,"non-matching SCONOSCIUTO"
"CNTRL10","CTRL",7,0.7212,1,"matching TU"
"CNTRL10","CTRL",8,1.1663,1,"non-matching SCONOSCIUTO"
"CNTRL10","CTRL",9,0.8785,1,"matching TU"
"CNTRL10","CTRL",10,1.2116,1,"non-matching TU"
"CNTRL10","CTRL",11,0.8791,1,"matching TU"
"CNTRL10","CTRL",12,1.1833,1,"non-matching SCONOSCIUTO"
"CNTRL10","CTRL",13,1.5541,0,"matching SCONOSCIUTO"
"CNTRL10","CTRL",14,0.8762,1,"matching TU"
"CNTRL10","CTRL",15,0.7373,1,"matching TU"
"CNTRL10","CTRL",16,NA,0,"non-matching SCONOSCIUTO"
"CNTRL10","CTRL",17,1.2125,1,"non-matching TU"
"CNTRL10","CTRL",18,1.2767,0,"non-matching SCONOSCIUTO"
"CNTRL10","CTRL",19,1.0332,1,"non-matching TU"
"CNTRL10","CTRL",20,1.0503,1,"non-matching SCONOSCIUTO"
"CNTRL10","CTRL",21,0.8213,1,"non-matching SCONOSCIUTO"
"CNTRL10","CTRL",22,0.5625,1,"matching TU"
"CNTRL10","CTRL",23,0.9296,1,"non-matching SCONOSCIUTO"
"CNTRL10","CTRL",24,1.1576,1,"matching SCONOSCIUTO"
"CNTRL10","CTRL",25,1.3732,1,"matching SCONOSCIUTO"
"CNTRL10","CTRL",26,NA,0,"matching SCONOSCIUTO"
"CNTRL10","CTRL",27,1.0213,1,"non-matching SCONOSCIUTO"
"CNTRL10","CTRL",28,1.012,1,"non-matching TU"
"CNTRL10","CTRL",29,0.8761,1,"non-matching TU"
"CNTRL10","CTRL",30,1.0505,1,"non-matching SCONOSCIUTO"
"CNTRL10","CTRL",31,0.6025,1,"matching TU"
"CNTRL10","CTRL",32,0.8716,1,"non-matching SCONOSCIUTO"
"CNTRL10","CTRL",33,1.2667,1,"non-matching TU"
"CNTRL10","CTRL",34,1.4355,1,"matching SCONOSCIUTO"
"CNTRL10","CTRL",35,0.9519,1,"non-matching TU"
"CNTRL10","CTRL",36,NA,0,"matching SCONOSCIUTO"
"CNTRL10","CTRL",37,1.2347,1,"non-matching SCONOSCIUTO"
"CNTRL10","CTRL",38,1.0479,1,"non-matching TU"
"CNTRL10","CTRL",39,1.0971,0,"matching SCONOSCIUTO"
"CNTRL10","CTRL",40,1.2497,1,"matching SCONOSCIUTO"
"CNTRL10","CTRL",41,0.9976,1,"non-matching TU"
"CNTRL10","CTRL",42,1.1379,1,"non-matching TU"
"CNTRL10","CTRL",43,NA,0,"non-matching SCONOSCIUTO"
"CNTRL10","CTRL",44,1.088,1,"non-matching TU"
"CNTRL10","CTRL",45,0.9291,1,"non-matching TU"
"CNTRL10","CTRL",46,1.0503,1,"non-matching SCONOSCIUTO"
"CNTRL10","CTRL",47,1.1052,0,"matching TU"
"CNTRL10","CTRL",48,0.8473,1,"non-matching TU"
"CNTRL10","CTRL",49,NA,0,"matching SCONOSCIUTO"
"CNTRL10","CTRL",50,1.2893,1,"matching SCONOSCIUTO"
"CNTRL10","CTRL",51,0.9477,1,"non-matching TU"
"CNTRL10","CTRL",52,0.9392,1,"matching TU"
"CNTRL10","CTRL",53,1.4601,1,"non-matching SCONOSCIUTO"
"CNTRL10","CTRL",54,1.2497,1,"non-matching SCONOSCIUTO"
"CNTRL10","CTRL",55,0.8316,1,"matching TU"
"CNTRL10","CTRL",56,1.1645,1,"non-matching SCONOSCIUTO"
"CNTRL10","CTRL",57,1.1073,1,"non-matching SCONOSCIUTO"
"CNTRL10","CTRL",58,1.1018,1,"non-matching SCONOSCIUTO"
"CNTRL10","CTRL",59,1.3296,1,"matching SCONOSCIUTO"
"CNTRL10","CTRL",60,0.9288,1,"non-matching TU"
"CNTRL10","CTRL",61,0.8983,1,"matching TU"
"CNTRL10","CTRL",62,0.7221,1,"non-matching SCONOSCIUTO"
"CNTRL10","CTRL",63,1.1475,1,"non-matching SCONOSCIUTO"
"CNTRL10","CTRL",64,0.8731,1,"non-matching SCONOSCIUTO"
"CNTRL10","CTRL",65,1.4656,1,"matching SCONOSCIUTO"
"CNTRL10","CTRL",66,1.2504,1,"non-matching TU"
"CNTRL10","CTRL",67,1.1146,1,"matching SCONOSCIUTO"
"CNTRL10","CTRL",68,1.1814,1,"non-matching TU"
"CNTRL10","CTRL",69,1.2444,1,"non-matching SCONOSCIUTO"
"CNTRL10","CTRL",70,1.1059,1,"non-matching SCONOSCIUTO"
"CNTRL10","CTRL",71,0.8669,1,"matching SCONOSCIUTO"
"CNTRL10","CTRL",72,1.4886,1,"matching SCONOSCIUTO"
"CNTRL10","CTRL",73,1.5016,1,"matching SCONOSCIUTO"
"CNTRL10","CTRL",74,0.9381,1,"non-matching SCONOSCIUTO"
"CNTRL10","CTRL",75,0.8461,1,"non-matching TU"
"CNTRL10","CTRL",76,0.9822,1,"matching SCONOSCIUTO"
"CNTRL10","CTRL",77,1.0851,1,"non-matching TU"
"CNTRL10","CTRL",78,0.8472,1,"non-matching TU"
"CNTRL10","CTRL",79,1.0583,1,"non-matching TU"
"CNTRL10","CTRL",80,0.5962,1,"matching TU"
"CNTRL10","CTRL",81,0.941,0,"matching TU"
"CNTRL10","CTRL",82,1.1008,1,"matching SCONOSCIUTO"
"CNTRL10","CTRL",83,1.2618,1,"non-matching SCONOSCIUTO"
"CNTRL10","CTRL",84,0.7812,1,"matching TU"
"CNTRL10","CTRL",85,0.9506,1,"matching TU"
"CNTRL10","CTRL",86,0.6634,1,"matching TU"
"CNTRL10","CTRL",87,1.1993,1,"non-matching TU"
"CNTRL10","CTRL",88,0.7787,1,"matching TU"
"CNTRL10","CTRL",89,1.0199,1,"non-matching SCONOSCIUTO"
"CNTRL10","CTRL",90,1.1777,1,"non-matching TU"
"CNTRL10","CTRL",91,0.8732,0,"matching SCONOSCIUTO"
"CNTRL10","CTRL",92,1.4653,1,"non-matching SCONOSCIUTO"
"CNTRL10","CTRL",93,1.1202,1,"matching SCONOSCIUTO"
"CNTRL10","CTRL",94,0.9841,1,"matching SCONOSCIUTO"
"CNTRL10","CTRL",95,NA,0,"non-matching SCONOSCIUTO"
"CNTRL10","CTRL",96,1.0118,1,"matching SCONOSCIUTO"
"CNTRL10","CTRL",97,1.0748,1,"non-matching SCONOSCIUTO"
"CNTRL10","CTRL",98,0.772,1,"matching TU"
"CNTRL10","CTRL",99,1.2066,1,"matching TU"
"CNTRL10","CTRL",100,0.8712,0,"non-matching SCONOSCIUTO"
"CNTRL10","CTRL",101,0.7811,1,"matching TU"
"CNTRL10","CTRL",102,1.2086,0,"matching SCONOSCIUTO"
"CNTRL10","CTRL",103,1.3504,1,"matching TU"
"CNTRL10","CTRL",104,0.8171,1,"matching TU"
"CNTRL10","CTRL",105,1.0103,1,"matching SCONOSCIUTO"
"CNTRL10","CTRL",106,1.4038,1,"matching SCONOSCIUTO"
"CNTRL10","CTRL",107,1.4406,1,"matching SCONOSCIUTO"
"CNTRL10","CTRL",108,0.7849,1,"matching TU"
"CNTRL10","CTRL",109,0.9383,1,"non-matching SCONOSCIUTO"
"CNTRL10","CTRL",110,1.2509,1,"non-matching TU"
"CNTRL10","CTRL",111,NA,0,"non-matching TU"
"CNTRL10","CTRL",112,1.0878,1,"matching SCONOSCIUTO"
"CNTRL10","CTRL",113,0.6771,1,"matching TU"
"CNTRL10","CTRL",114,0.9384,1,"non-matching TU"
"CNTRL10","CTRL",115,1.1693,1,"non-matching TU"
"CNTRL10","CTRL",116,1.2147,1,"matching SCONOSCIUTO"
"CNTRL10","CTRL",117,0.9678,1,"matching TU"
"CNTRL10","CTRL",118,0.5011,1,"matching TU"
"CNTRL10","CTRL",119,0.6025,1,"matching TU"
"CNTRL10","CTRL",120,0.7732,0,"non-matching SCONOSCIUTO"
"CNTRL10","CTRL",121,1.0593,1,"matching TU"
"CNTRL10","CTRL",122,1.2054,1,"non-matching TU"
"CNTRL10","CTRL",123,1.463,1,"non-matching TU"
"CNTRL10","CTRL",124,1.2887,0,"matching SCONOSCIUTO"
"CNTRL10","CTRL",125,1.5182,1,"non-matching TU"
"CNTRL10","CTRL",126,1.3143,1,"non-matching SCONOSCIUTO"
"CNTRL10","CTRL",127,1.5334,1,"non-matching TU"
"CNTRL10","CTRL",128,1.2386,1,"matching SCONOSCIUTO"
"CNTRL10","CTRL",129,1.1475,1,"matching SCONOSCIUTO"
"CNTRL10","CTRL",130,NA,0,"matching SCONOSCIUTO"
"CNTRL10","CTRL",131,1.139,1,"matching SCONOSCIUTO"
"CNTRL10","CTRL",132,1.1815,1,"non-matching SCONOSCIUTO"
"CNTRL10","CTRL",133,0.9419,0,"non-matching SCONOSCIUTO"
"CNTRL10","CTRL",134,0.8165,1,"matching TU"
"CNTRL10","CTRL",135,1.3957,1,"non-matching TU"
"CNTRL10","CTRL",136,1.1052,1,"matching TU"
"CNTRL10","CTRL",137,0.7622,1,"non-matching SCONOSCIUTO"
"CNTRL10","CTRL",138,0.8043,1,"matching TU"
"CNTRL10","CTRL",139,0.7848,1,"matching TU"
"CNTRL10","CTRL",140,0.7406,1,"matching TU"
"CNTRL10","CTRL",141,1.1329,1,"non-matching SCONOSCIUTO"
"CNTRL10","CTRL",142,0.7949,1,"matching TU"
"CNTRL10","CTRL",143,1.0849,1,"matching SCONOSCIUTO"
"CNTRL10","CTRL",144,0.7432,1,"matching TU"
"CNTRL10","CTRL",145,0.9371,1,"non-matching TU"
"CNTRL10","CTRL",146,0.8986,1,"matching SCONOSCIUTO"
"CNTRL10","CTRL",147,1.0988,1,"non-matching TU"
"CNTRL10","CTRL",148,1.2363,1,"matching SCONOSCIUTO"
"CNTRL10","CTRL",149,0.7369,1,"matching SCONOSCIUTO"
"CNTRL10","CTRL",150,1.0957,1,"non-matching TU"
"CNTRL10","CTRL",151,1.2464,1,"non-matching SCONOSCIUTO"
"CNTRL10","CTRL",152,1.3941,1,"non-matching TU"
"CNTRL10","CTRL",153,1.3825,0,"non-matching TU"
"CNTRL10","CTRL",154,1.1612,1,"non-matching SCONOSCIUTO"
"CNTRL10","CTRL",155,1.2458,1,"non-matching TU"
"CNTRL10","CTRL",156,1.3996,1,"matching SCONOSCIUTO"
"CNTRL10","CTRL",157,1.3371,1,"matching TU"
"CNTRL10","CTRL",158,1.2662,1,"non-matching SCONOSCIUTO"
"CNTRL10","CTRL",159,1.1481,1,"non-matching TU"
"CNTRL10","CTRL",160,1.0828,1,"non-matching TU"
"CNTRL10","CTRL",161,0.8443,1,"non-matching SCONOSCIUTO"
"CNTRL10","CTRL",162,1.3127,1,"matching SCONOSCIUTO"
"CNTRL10","CTRL",163,1.0621,1,"non-matching SCONOSCIUTO"
"CNTRL10","CTRL",164,1.3438,1,"non-matching TU"
"CNTRL10","CTRL",165,1.0758,1,"non-matching SCONOSCIUTO"
"CNTRL10","CTRL",166,0.9538,1,"non-matching TU"
"CNTRL10","CTRL",167,0.7694,1,"matching TU"
"CNTRL10","CTRL",168,NA,0,"non-matching SCONOSCIUTO"
"CNTRL10","CTRL",169,1.0202,0,"matching SCONOSCIUTO"
"CNTRL10","CTRL",170,1.0793,1,"matching TU"
"CNTRL10","CTRL",171,1.4296,1,"non-matching TU"
"CNTRL10","CTRL",172,0.9166,1,"matching TU"
"CNTRL10","CTRL",173,0.9954,1,"matching SCONOSCIUTO"
"CNTRL10","CTRL",174,0.9477,1,"non-matching TU"
"CNTRL10","CTRL",175,1.5142,1,"non-matching TU"
"CNTRL10","CTRL",176,1.2853,0,"non-matching SCONOSCIUTO"
"CNTRL10","CTRL",177,1.0529,1,"non-matching TU"
"CNTRL10","CTRL",178,1.2308,1,"non-matching TU"
"CNTRL10","CTRL",179,0.9021,1,"non-matching SCONOSCIUTO"
"CNTRL10","CTRL",180,0.9472,1,"matching SCONOSCIUTO"
"CNTRL10","CTRL",181,0.8507,1,"matching TU"
"CNTRL10","CTRL",182,1.0549,0,"matching TU"
"CNTRL10","CTRL",183,0.8185,1,"matching TU"
"CNTRL10","CTRL",184,1.2359,0,"non-matching TU"
"CNTRL10","CTRL",185,1.0825,1,"matching SCONOSCIUTO"
"CNTRL10","CTRL",186,0.9952,1,"non-matching SCONOSCIUTO"
"CNTRL10","CTRL",187,1.4049,1,"matching SCONOSCIUTO"
"CNTRL10","CTRL",188,1.219,1,"non-matching SCONOSCIUTO"
"CNTRL10","CTRL",189,1.232,1,"non-matching SCONOSCIUTO"
"CNTRL10","CTRL",190,1.1467,1,"non-matching TU"
"CNTRL10","CTRL",191,1.1706,1,"matching SCONOSCIUTO"
"CNTRL10","CTRL",192,1.241,1,"matching SCONOSCIUTO"
"CNTRL10","CTRL",193,1.1633,1,"matching TU"
"CNTRL10","CTRL",194,0.8792,1,"matching TU"
"CNTRL10","CTRL",195,0.708,1,"matching TU"
"CNTRL10","CTRL",196,0.6115,1,"matching TU"
"CNTRL10","CTRL",197,1.191,1,"matching SCONOSCIUTO"
"CNTRL10","CTRL",198,0.9471,1,"matching TU"
"CNTRL10","CTRL",199,0.7044,1,"matching TU"
"CNTRL10","CTRL",200,1.0025,1,"non-matching TU"
"CNTRL11","CTRL",1,1.066,1,"non-matching SCONOSCIUTO"
"CNTRL11","CTRL",2,NA,0,"non-matching TU"
"CNTRL11","CTRL",3,0.9621,0,"non-matching SCONOSCIUTO"
"CNTRL11","CTRL",4,1.2372,1,"matching TU"
"CNTRL11","CTRL",5,0.6579,1,"matching TU"
"CNTRL11","CTRL",6,0.6708,1,"matching TU"
"CNTRL11","CTRL",7,0.9638,0,"matching SCONOSCIUTO"
"CNTRL11","CTRL",8,1.1756,1,"non-matching SCONOSCIUTO"
"CNTRL11","CTRL",9,1.2188,1,"non-matching TU"
"CNTRL11","CTRL",10,1.115,1,"non-matching SCONOSCIUTO"
"CNTRL11","CTRL",11,1.1562,0,"non-matching TU"
"CNTRL11","CTRL",12,NA,0,"non-matching SCONOSCIUTO"
"CNTRL11","CTRL",13,1.1035,1,"non-matching SCONOSCIUTO"
"CNTRL11","CTRL",14,NA,0,"matching SCONOSCIUTO"
"CNTRL11","CTRL",15,1.4299,1,"non-matching SCONOSCIUTO"
"CNTRL11","CTRL",16,1.3344,1,"non-matching TU"
"CNTRL11","CTRL",17,1.4987,1,"matching SCONOSCIUTO"
"CNTRL11","CTRL",18,0.7875,1,"matching SCONOSCIUTO"
"CNTRL11","CTRL",19,1.0642,1,"matching SCONOSCIUTO"
"CNTRL11","CTRL",20,0.8595,0,"matching TU"
"CNTRL11","CTRL",21,0.9856,1,"non-matching SCONOSCIUTO"
"CNTRL11","CTRL",22,1.3491,1,"non-matching TU"
"CNTRL11","CTRL",23,1.5232,1,"non-matching TU"
"CNTRL11","CTRL",24,0.9929,1,"matching SCONOSCIUTO"
"CNTRL11","CTRL",25,1.0461,1,"non-matching TU"
"CNTRL11","CTRL",26,1.312,1,"non-matching TU"
"CNTRL11","CTRL",27,NA,0,"matching TU"
"CNTRL11","CTRL",28,1.0018,1,"non-matching SCONOSCIUTO"
"CNTRL11","CTRL",29,0.8905,1,"non-matching SCONOSCIUTO"
"CNTRL11","CTRL",30,1.2474,1,"non-matching TU"
"CNTRL11","CTRL",31,1.1204,1,"non-matching SCONOSCIUTO"
"CNTRL11","CTRL",32,1.229,1,"matching TU"
"CNTRL11","CTRL",33,1.0208,1,"non-matching TU"
"CNTRL11","CTRL",34,0.9477,1,"matching SCONOSCIUTO"
"CNTRL11","CTRL",35,1.0949,1,"non-matching TU"
"CNTRL11","CTRL",36,0.8545,1,"non-matching SCONOSCIUTO"
"CNTRL11","CTRL",37,1.3062,1,"matching SCONOSCIUTO"
"CNTRL11","CTRL",38,1.0165,1,"matching SCONOSCIUTO"
"CNTRL11","CTRL",39,0.852,1,"matching TU"
"CNTRL11","CTRL",40,1.5296,1,"matching TU"
"CNTRL11","CTRL",41,0.7884,1,"matching SCONOSCIUTO"
"CNTRL11","CTRL",42,0.6756,1,"matching TU"
"CNTRL11","CTRL",43,NA,0,"matching TU"
"CNTRL11","CTRL",44,0.9489,0,"non-matching TU"
"CNTRL11","CTRL",45,1.0805,0,"non-matching SCONOSCIUTO"
"CNTRL11","CTRL",46,1.1966,0,"matching SCONOSCIUTO"
"CNTRL11","CTRL",47,1.248,1,"non-matching SCONOSCIUTO"
"CNTRL11","CTRL",48,1.0596,1,"matching TU"
"CNTRL11","CTRL",49,NA,0,"non-matching TU"
"CNTRL11","CTRL",50,1.0681,0,"non-matching TU"
"CNTRL11","CTRL",51,1.3357,1,"non-matching TU"
"CNTRL11","CTRL",52,0.9459,1,"matching TU"
"CNTRL11","CTRL",53,1.1673,1,"matching SCONOSCIUTO"
"CNTRL11","CTRL",54,1.5023,1,"non-matching SCONOSCIUTO"
"CNTRL11","CTRL",55,0.7318,1,"matching TU"
"CNTRL11","CTRL",56,1.1066,1,"matching SCONOSCIUTO"
"CNTRL11","CTRL",57,0.9291,1,"matching TU"
"CNTRL11","CTRL",58,1.3496,1,"non-matching TU"
"CNTRL11","CTRL",59,1.3685,1,"non-matching TU"
"CNTRL11","CTRL",60,1.3759,0,"non-matching SCONOSCIUTO"
"CNTRL11","CTRL",61,1.1441,1,"matching SCONOSCIUTO"
"CNTRL11","CTRL",62,NA,0,"non-matching SCONOSCIUTO"
"CNTRL11","CTRL",63,1.0574,1,"non-matching SCONOSCIUTO"
"CNTRL11","CTRL",64,1.109,1,"matching TU"
"CNTRL11","CTRL",65,0.9444,1,"matching TU"
"CNTRL11","CTRL",66,0.7403,1,"matching TU"
"CNTRL11","CTRL",67,1.1254,1,"non-matching TU"
"CNTRL11","CTRL",68,0.853,1,"matching SCONOSCIUTO"
"CNTRL11","CTRL",69,0.8373,1,"non-matching TU"
"CNTRL11","CTRL",70,0.9464,1,"non-matching TU"
"CNTRL11","CTRL",71,0.7428,1,"matching TU"
"CNTRL11","CTRL",72,1.3461,1,"non-matching SCONOSCIUTO"
"CNTRL11","CTRL",73,0.8923,1,"non-matching SCONOSCIUTO"
"CNTRL11","CTRL",74,1.1867,1,"matching SCONOSCIUTO"
"CNTRL11","CTRL",75,1.2213,1,"non-matching SCONOSCIUTO"
"CNTRL11","CTRL",76,1.2743,1,"non-matching TU"
"CNTRL11","CTRL",77,0.8534,1,"matching TU"
"CNTRL11","CTRL",78,1.0488,1,"matching SCONOSCIUTO"
"CNTRL11","CTRL",79,0.859,1,"matching TU"
"CNTRL11","CTRL",80,1.0653,1,"matching TU"
"CNTRL11","CTRL",81,1.1428,1,"non-matching TU"
"CNTRL11","CTRL",82,1.4405,1,"non-matching SCONOSCIUTO"
"CNTRL11","CTRL",83,1.2735,1,"non-matching SCONOSCIUTO"
"CNTRL11","CTRL",84,0.9891,1,"matching SCONOSCIUTO"
"CNTRL11","CTRL",85,0.8842,1,"non-matching SCONOSCIUTO"
"CNTRL11","CTRL",86,1.0696,1,"matching TU"
"CNTRL11","CTRL",87,0.8896,1,"non-matching SCONOSCIUTO"
"CNTRL11","CTRL",88,0.7986,1,"matching SCONOSCIUTO"
"CNTRL11","CTRL",89,0.9352,1,"non-matching SCONOSCIUTO"
"CNTRL11","CTRL",90,1.0253,1,"non-matching SCONOSCIUTO"
"CNTRL11","CTRL",91,0.6201,1,"matching TU"
"CNTRL11","CTRL",92,0.8021,1,"non-matching SCONOSCIUTO"
"CNTRL11","CTRL",93,0.8225,1,"matching TU"
"CNTRL11","CTRL",94,1.1354,1,"matching SCONOSCIUTO"
"CNTRL11","CTRL",95,0.7866,1,"matching SCONOSCIUTO"
"CNTRL11","CTRL",96,0.8154,1,"matching TU"
"CNTRL11","CTRL",97,0.9894,1,"non-matching TU"
"CNTRL11","CTRL",98,0.7392,1,"matching TU"
"CNTRL11","CTRL",99,0.6807,1,"matching SCONOSCIUTO"
"CNTRL11","CTRL",100,1.0321,0,"non-matching TU"
"CNTRL11","CTRL",101,1.0319,1,"matching SCONOSCIUTO"
"CNTRL11","CTRL",102,1.4298,1,"non-matching SCONOSCIUTO"
"CNTRL11","CTRL",103,0.8559,1,"non-matching SCONOSCIUTO"
"CNTRL11","CTRL",104,0.8652,1,"matching SCONOSCIUTO"
"CNTRL11","CTRL",105,1.2125,1,"non-matching TU"
"CNTRL11","CTRL",106,0.9543,1,"non-matching TU"
"CNTRL11","CTRL",107,0.7781,1,"non-matching SCONOSCIUTO"
"CNTRL11","CTRL",108,0.8459,1,"non-matching SCONOSCIUTO"
"CNTRL11","CTRL",109,0.8303,1,"matching TU"
"CNTRL11","CTRL",110,0.7901,1,"matching TU"
"CNTRL11","CTRL",111,0.6335,1,"matching SCONOSCIUTO"
"CNTRL11","CTRL",112,1.2059,1,"matching SCONOSCIUTO"
"CNTRL11","CTRL",113,0.9626,1,"matching SCONOSCIUTO"
"CNTRL11","CTRL",114,0.9525,0,"matching SCONOSCIUTO"
"CNTRL11","CTRL",115,1.3798,1,"non-matching SCONOSCIUTO"
"CNTRL11","CTRL",116,0.6492,1,"matching TU"
"CNTRL11","CTRL",117,0.8536,1,"non-matching TU"
"CNTRL11","CTRL",118,0.8828,1,"non-matching SCONOSCIUTO"
"CNTRL11","CTRL",119,0.8199,1,"matching SCONOSCIUTO"
"CNTRL11","CTRL",120,1.138,1,"non-matching TU"
"CNTRL11","CTRL",121,0.7743,1,"matching TU"
"CNTRL11","CTRL",122,0.833,1,"matching SCONOSCIUTO"
"CNTRL11","CTRL",123,0.8727,0,"non-matching TU"
"CNTRL11","CTRL",124,1.3133,1,"non-matching TU"
"CNTRL11","CTRL",125,1.019,1,"non-matching SCONOSCIUTO"
"CNTRL11","CTRL",126,0.7469,1,"matching TU"
"CNTRL11","CTRL",127,0.9269,1,"non-matching SCONOSCIUTO"
"CNTRL11","CTRL",128,0.7117,1,"matching TU"
"CNTRL11","CTRL",129,0.9656,0,"matching SCONOSCIUTO"
"CNTRL11","CTRL",130,0.8949,1,"matching SCONOSCIUTO"
"CNTRL11","CTRL",131,0.9161,1,"non-matching SCONOSCIUTO"
"CNTRL11","CTRL",132,0.9372,1,"non-matching TU"
"CNTRL11","CTRL",133,0.8551,1,"matching TU"
"CNTRL11","CTRL",134,0.8623,1,"non-matching TU"
"CNTRL11","CTRL",135,1.1657,1,"non-matching SCONOSCIUTO"
"CNTRL11","CTRL",136,1.0473,1,"matching TU"
"CNTRL11","CTRL",137,1.1559,1,"matching TU"
"CNTRL11","CTRL",138,0.8047,1,"non-matching TU"
"CNTRL11","CTRL",139,0.7654,1,"non-matching TU"
"CNTRL11","CTRL",140,1.0403,1,"matching SCONOSCIUTO"
"CNTRL11","CTRL",141,0.6269,1,"matching SCONOSCIUTO"
"CNTRL11","CTRL",142,0.735,1,"non-matching SCONOSCIUTO"
"CNTRL11","CTRL",143,0.7496,1,"matching SCONOSCIUTO"
"CNTRL11","CTRL",144,0.8713,1,"non-matching SCONOSCIUTO"
"CNTRL11","CTRL",145,1.3159,1,"non-matching TU"
"CNTRL11","CTRL",146,0.6505,1,"matching TU"
"CNTRL11","CTRL",147,0.7674,1,"matching SCONOSCIUTO"
"CNTRL11","CTRL",148,0.7777,1,"non-matching TU"
"CNTRL11","CTRL",149,0.9525,1,"matching TU"
"CNTRL11","CTRL",150,0.7835,1,"non-matching SCONOSCIUTO"
"CNTRL11","CTRL",151,0.7829,1,"matching TU"
"CNTRL11","CTRL",152,0.9283,1,"matching SCONOSCIUTO"
"CNTRL11","CTRL",153,0.8783,1,"non-matching SCONOSCIUTO"
"CNTRL11","CTRL",154,0.6485,1,"matching TU"
"CNTRL11","CTRL",155,0.852,1,"non-matching TU"
"CNTRL11","CTRL",156,0.8387,1,"non-matching TU"
"CNTRL11","CTRL",157,0.8679,1,"non-matching TU"
"CNTRL11","CTRL",158,0.8208,1,"matching SCONOSCIUTO"
"CNTRL11","CTRL",159,0.7411,1,"matching TU"
"CNTRL11","CTRL",160,0.7094,1,"matching SCONOSCIUTO"
"CNTRL11","CTRL",161,0.747,1,"non-matching SCONOSCIUTO"
"CNTRL11","CTRL",162,0.8611,1,"matching SCONOSCIUTO"
"CNTRL11","CTRL",163,0.7554,1,"matching SCONOSCIUTO"
"CNTRL11","CTRL",164,0.687,1,"matching SCONOSCIUTO"
"CNTRL11","CTRL",165,0.8549,1,"non-matching SCONOSCIUTO"
"CNTRL11","CTRL",166,0.6752,1,"matching TU"
"CNTRL11","CTRL",167,0.8668,1,"non-matching TU"
"CNTRL11","CTRL",168,0.9394,1,"matching TU"
"CNTRL11","CTRL",169,1.1411,1,"matching SCONOSCIUTO"
"CNTRL11","CTRL",170,0.7692,1,"matching TU"
"CNTRL11","CTRL",171,0.909,1,"non-matching TU"
"CNTRL11","CTRL",172,0.6467,1,"matching SCONOSCIUTO"
"CNTRL11","CTRL",173,0.9623,1,"non-matching TU"
"CNTRL11","CTRL",174,0.7694,1,"matching SCONOSCIUTO"
"CNTRL11","CTRL",175,0.8398,1,"non-matching TU"
"CNTRL11","CTRL",176,1.2291,1,"non-matching SCONOSCIUTO"
"CNTRL11","CTRL",177,0.8104,1,"matching SCONOSCIUTO"
"CNTRL11","CTRL",178,0.8855,1,"matching SCONOSCIUTO"
"CNTRL11","CTRL",179,0.9281,1,"matching TU"
"CNTRL11","CTRL",180,0.8454,1,"matching TU"
"CNTRL11","CTRL",181,0.9529,1,"non-matching SCONOSCIUTO"
"CNTRL11","CTRL",182,0.9921,1,"non-matching TU"
"CNTRL11","CTRL",183,1.2429,1,"non-matching SCONOSCIUTO"
"CNTRL11","CTRL",184,0.9517,1,"non-matching TU"
"CNTRL11","CTRL",185,0.6209,1,"matching TU"
"CNTRL11","CTRL",186,0.7391,1,"matching SCONOSCIUTO"
"CNTRL11","CTRL",187,0.9456,0,"matching TU"
"CNTRL11","CTRL",188,0.7786,1,"matching SCONOSCIUTO"
"CNTRL11","CTRL",189,0.8909,1,"matching TU"
"CNTRL11","CTRL",190,0.8231,1,"matching SCONOSCIUTO"
"CNTRL11","CTRL",191,0.8126,1,"non-matching TU"
"CNTRL11","CTRL",192,0.6429,1,"matching TU"
"CNTRL11","CTRL",193,0.9024,1,"non-matching SCONOSCIUTO"
"CNTRL11","CTRL",194,0.8406,1,"non-matching SCONOSCIUTO"
"CNTRL11","CTRL",195,0.7632,1,"non-matching TU"
"CNTRL11","CTRL",196,0.8073,1,"non-matching TU"
"CNTRL11","CTRL",197,0.8457,1,"non-matching TU"
"CNTRL11","CTRL",198,0.7873,1,"non-matching TU"
"CNTRL11","CTRL",199,0.7482,1,"matching TU"
"CNTRL11","CTRL",200,0.9364,1,"non-matching SCONOSCIUTO"
"CNTRL12","CTRL",1,NA,0,"non-matching SCONOSCIUTO"
"CNTRL12","CTRL",2,1.0694,1,"non-matching SCONOSCIUTO"
"CNTRL12","CTRL",3,0.9469,1,"non-matching SCONOSCIUTO"
"CNTRL12","CTRL",4,0.7555,1,"matching SCONOSCIUTO"
"CNTRL12","CTRL",5,1.0556,0,"matching SCONOSCIUTO"
"CNTRL12","CTRL",6,0.8795,1,"non-matching TU"
"CNTRL12","CTRL",7,0.7581,1,"non-matching SCONOSCIUTO"
"CNTRL12","CTRL",8,0.5323,1,"matching TU"
"CNTRL12","CTRL",9,0.7471,1,"matching TU"
"CNTRL12","CTRL",10,0.9802,1,"matching TU"
"CNTRL12","CTRL",11,0.7661,1,"non-matching TU"
"CNTRL12","CTRL",12,1.0731,1,"matching SCONOSCIUTO"
"CNTRL12","CTRL",13,0.9488,1,"matching SCONOSCIUTO"
"CNTRL12","CTRL",14,0.8355,1,"non-matching TU"
"CNTRL12","CTRL",15,0.8272,1,"non-matching TU"
"CNTRL12","CTRL",16,0.556,1,"matching SCONOSCIUTO"
"CNTRL12","CTRL",17,0.6712,1,"matching SCONOSCIUTO"
"CNTRL12","CTRL",18,0.6494,1,"matching TU"
"CNTRL12","CTRL",19,0.6523,1,"non-matching SCONOSCIUTO"
"CNTRL12","CTRL",20,0.5486,0,"non-matching TU"
"CNTRL12","CTRL",21,1.0982,0,"non-matching SCONOSCIUTO"
"CNTRL12","CTRL",22,0.7548,1,"matching SCONOSCIUTO"
"CNTRL12","CTRL",23,0.8614,1,"non-matching TU"
"CNTRL12","CTRL",24,0.7006,1,"matching SCONOSCIUTO"
"CNTRL12","CTRL",25,0.6689,1,"non-matching TU"
"CNTRL12","CTRL",26,0.6842,1,"matching TU"
"CNTRL12","CTRL",27,0.6842,1,"matching TU"
"CNTRL12","CTRL",28,0.7246,1,"non-matching TU"
"CNTRL12","CTRL",29,0.7019,1,"non-matching TU"
"CNTRL12","CTRL",30,0.7419,1,"matching TU"
"CNTRL12","CTRL",31,0.5495,1,"matching TU"
"CNTRL12","CTRL",32,0.8247,1,"non-matching TU"
"CNTRL12","CTRL",33,0.953,1,"non-matching SCONOSCIUTO"
"CNTRL12","CTRL",34,0.7425,1,"matching TU"
"CNTRL12","CTRL",35,0.6714,1,"matching TU"
"CNTRL12","CTRL",36,0.7623,1,"matching SCONOSCIUTO"
"CNTRL12","CTRL",37,0.5931,1,"non-matching TU"
"CNTRL12","CTRL",38,0.835,1,"non-matching SCONOSCIUTO"
"CNTRL12","CTRL",39,0.7073,1,"matching SCONOSCIUTO"
"CNTRL12","CTRL",40,0.8022,1,"non-matching SCONOSCIUTO"
"CNTRL12","CTRL",41,0.7745,1,"non-matching TU"
"CNTRL12","CTRL",42,0.5826,0,"non-matching TU"
"CNTRL12","CTRL",43,0.7864,1,"non-matching SCONOSCIUTO"
"CNTRL12","CTRL",44,0.7621,1,"matching SCONOSCIUTO"
"CNTRL12","CTRL",45,0.7715,1,"non-matching SCONOSCIUTO"
"CNTRL12","CTRL",46,0.8076,1,"matching SCONOSCIUTO"
"CNTRL12","CTRL",47,0.7847,1,"matching TU"
"CNTRL12","CTRL",48,0.6735,1,"non-matching TU"
"CNTRL12","CTRL",49,0.7399,1,"matching TU"
"CNTRL12","CTRL",50,0.9195,1,"non-matching SCONOSCIUTO"
"CNTRL12","CTRL",51,0.5941,0,"non-matching TU"
"CNTRL12","CTRL",52,0.726,1,"non-matching SCONOSCIUTO"
"CNTRL12","CTRL",53,0.6449,1,"matching TU"
"CNTRL12","CTRL",54,1.1119,1,"non-matching SCONOSCIUTO"
"CNTRL12","CTRL",55,0.5696,1,"non-matching SCONOSCIUTO"
"CNTRL12","CTRL",56,0.601,1,"non-matching SCONOSCIUTO"
"CNTRL12","CTRL",57,0.5533,1,"matching SCONOSCIUTO"
"CNTRL12","CTRL",58,0.6541,1,"non-matching TU"
"CNTRL12","CTRL",59,0.5763,1,"non-matching TU"
"CNTRL12","CTRL",60,0.4579,1,"matching TU"
"CNTRL12","CTRL",61,0.6486,1,"non-matching TU"
"CNTRL12","CTRL",62,0.7947,1,"matching SCONOSCIUTO"
"CNTRL12","CTRL",63,0.5118,0,"matching TU"
"CNTRL12","CTRL",64,0.7712,1,"matching SCONOSCIUTO"
"CNTRL12","CTRL",65,0.57,1,"matching TU"
"CNTRL12","CTRL",66,0.7052,1,"non-matching TU"
"CNTRL12","CTRL",67,0.837,1,"non-matching SCONOSCIUTO"
"CNTRL12","CTRL",68,1.1221,1,"non-matching SCONOSCIUTO"
"CNTRL12","CTRL",69,0.9314,1,"non-matching TU"
"CNTRL12","CTRL",70,0.5835,1,"matching SCONOSCIUTO"
"CNTRL12","CTRL",71,0.6069,0,"matching SCONOSCIUTO"
"CNTRL12","CTRL",72,0.8886,1,"non-matching TU"
"CNTRL12","CTRL",73,0.7099,1,"non-matching SCONOSCIUTO"
"CNTRL12","CTRL",74,0.604,1,"matching TU"
"CNTRL12","CTRL",75,1.0315,1,"non-matching TU"
"CNTRL12","CTRL",76,0.7683,1,"non-matching TU"
"CNTRL12","CTRL",77,0.6881,1,"matching SCONOSCIUTO"
"CNTRL12","CTRL",78,0.6235,1,"matching SCONOSCIUTO"
"CNTRL12","CTRL",79,0.5749,1,"non-matching SCONOSCIUTO"
"CNTRL12","CTRL",80,0.6114,1,"matching TU"
"CNTRL12","CTRL",81,0.7115,1,"non-matching TU"
"CNTRL12","CTRL",82,0.6386,1,"matching SCONOSCIUTO"
"CNTRL12","CTRL",83,0.5784,1,"non-matching TU"
"CNTRL12","CTRL",84,0.742,1,"matching SCONOSCIUTO"
"CNTRL12","CTRL",85,0.6207,1,"matching SCONOSCIUTO"
"CNTRL12","CTRL",86,0.8202,1,"matching TU"
"CNTRL12","CTRL",87,0.5013,1,"matching TU"
"CNTRL12","CTRL",88,0.6919,1,"matching SCONOSCIUTO"
"CNTRL12","CTRL",89,0.6215,1,"non-matching TU"
"CNTRL12","CTRL",90,0.9687,1,"non-matching TU"
"CNTRL12","CTRL",91,0.6598,1,"matching TU"
"CNTRL12","CTRL",92,0.7737,1,"non-matching TU"
"CNTRL12","CTRL",93,0.7195,1,"non-matching SCONOSCIUTO"
"CNTRL12","CTRL",94,0.6116,1,"matching TU"
"CNTRL12","CTRL",95,0.5832,1,"matching TU"
"CNTRL12","CTRL",96,0.5975,1,"non-matching TU"
"CNTRL12","CTRL",97,0.5768,1,"matching TU"
"CNTRL12","CTRL",98,0.6869,1,"non-matching TU"
"CNTRL12","CTRL",99,0.6381,1,"matching TU"
"CNTRL12","CTRL",100,0.6155,1,"non-matching SCONOSCIUTO"
"CNTRL12","CTRL",101,0.7715,1,"non-matching SCONOSCIUTO"
"CNTRL12","CTRL",102,0.5322,1,"non-matching SCONOSCIUTO"
"CNTRL12","CTRL",103,0.6029,1,"non-matching SCONOSCIUTO"
"CNTRL12","CTRL",104,0.6054,0,"non-matching TU"
"CNTRL12","CTRL",105,0.7866,1,"matching SCONOSCIUTO"
"CNTRL12","CTRL",106,0.9232,0,"matching SCONOSCIUTO"
"CNTRL12","CTRL",107,0.6555,1,"matching SCONOSCIUTO"
"CNTRL12","CTRL",108,0.6969,1,"non-matching TU"
"CNTRL12","CTRL",109,0.6778,1,"matching SCONOSCIUTO"
"CNTRL12","CTRL",110,0.4867,1,"matching TU"
"CNTRL12","CTRL",111,0.6849,1,"matching TU"
"CNTRL12","CTRL",112,0.5573,1,"matching TU"
"CNTRL12","CTRL",113,0.6774,1,"matching SCONOSCIUTO"
"CNTRL12","CTRL",114,0.7243,1,"non-matching TU"
"CNTRL12","CTRL",115,0.9353,1,"matching TU"
"CNTRL12","CTRL",116,0.6288,1,"matching TU"
"CNTRL12","CTRL",117,1.0639,1,"non-matching TU"
"CNTRL12","CTRL",118,0.8505,1,"non-matching SCONOSCIUTO"
"CNTRL12","CTRL",119,0.6556,1,"matching SCONOSCIUTO"
"CNTRL12","CTRL",120,0.5546,1,"matching SCONOSCIUTO"
"CNTRL12","CTRL",121,0.7106,1,"matching TU"
"CNTRL12","CTRL",122,0.7825,1,"matching SCONOSCIUTO"
"CNTRL12","CTRL",123,0.6291,1,"matching SCONOSCIUTO"
"CNTRL12","CTRL",124,0.5416,1,"matching SCONOSCIUTO"
"CNTRL12","CTRL",125,0.7281,1,"matching TU"
"CNTRL12","CTRL",126,0.791,1,"non-matching TU"
"CNTRL12","CTRL",127,0.6734,1,"matching SCONOSCIUTO"
"CNTRL12","CTRL",128,0.7294,1,"non-matching SCONOSCIUTO"
"CNTRL12","CTRL",129,0.5628,1,"matching TU"
"CNTRL12","CTRL",130,0.6798,1,"non-matching SCONOSCIUTO"
"CNTRL12","CTRL",131,0.7588,1,"matching SCONOSCIUTO"
"CNTRL12","CTRL",132,0.79,1,"non-matching TU"
"CNTRL12","CTRL",133,0.8762,1,"non-matching SCONOSCIUTO"
"CNTRL12","CTRL",134,0.8718,1,"non-matching TU"
"CNTRL12","CTRL",135,0.6081,1,"matching TU"
"CNTRL12","CTRL",136,0.6523,1,"non-matching SCONOSCIUTO"
"CNTRL12","CTRL",137,1.0619,1,"non-matching SCONOSCIUTO"
"CNTRL12","CTRL",138,0.7504,1,"non-matching TU"
"CNTRL12","CTRL",139,0.5237,1,"matching TU"
"CNTRL12","CTRL",140,0.6249,1,"non-matching TU"
"CNTRL12","CTRL",141,0.5192,1,"matching SCONOSCIUTO"
"CNTRL12","CTRL",142,0.6842,1,"matching TU"
"CNTRL12","CTRL",143,0.6622,1,"matching TU"
"CNTRL12","CTRL",144,0.5703,1,"matching TU"
"CNTRL12","CTRL",145,0.6003,1,"matching TU"
"CNTRL12","CTRL",146,0.5705,1,"non-matching SCONOSCIUTO"
"CNTRL12","CTRL",147,0.6399,1,"non-matching SCONOSCIUTO"
"CNTRL12","CTRL",148,0.6301,1,"matching TU"
"CNTRL12","CTRL",149,0.7251,0,"matching SCONOSCIUTO"
"CNTRL12","CTRL",150,0.7804,1,"matching TU"
"CNTRL12","CTRL",151,0.6892,1,"non-matching TU"
"CNTRL12","CTRL",152,0.7087,0,"non-matching TU"
"CNTRL12","CTRL",153,0.7203,1,"non-matching TU"
"CNTRL12","CTRL",154,1.1097,1,"non-matching SCONOSCIUTO"
"CNTRL12","CTRL",155,0.7539,1,"matching SCONOSCIUTO"
"CNTRL12","CTRL",156,0.7367,1,"non-matching TU"
"CNTRL12","CTRL",157,0.9359,1,"non-matching SCONOSCIUTO"
"CNTRL12","CTRL",158,0.8293,1,"non-matching TU"
"CNTRL12","CTRL",159,0.632,1,"non-matching SCONOSCIUTO"
"CNTRL12","CTRL",160,0.858,1,"matching SCONOSCIUTO"
"CNTRL12","CTRL",161,0.6105,1,"non-matching TU"
"CNTRL12","CTRL",162,0.8539,1,"non-matching SCONOSCIUTO"
"CNTRL12","CTRL",163,0.6549,1,"matching TU"
"CNTRL12","CTRL",164,0.7277,1,"non-matching SCONOSCIUTO"
"CNTRL12","CTRL",165,0.7746,1,"non-matching SCONOSCIUTO"
"CNTRL12","CTRL",166,0.5647,1,"non-matching SCONOSCIUTO"
"CNTRL12","CTRL",167,0.6339,1,"non-matching SCONOSCIUTO"
"CNTRL12","CTRL",168,0.5526,1,"matching SCONOSCIUTO"
"CNTRL12","CTRL",169,0.6435,1,"non-matching TU"
"CNTRL12","CTRL",170,0.7653,1,"non-matching SCONOSCIUTO"
"CNTRL12","CTRL",171,0.9068,1,"matching SCONOSCIUTO"
"CNTRL12","CTRL",172,0.7017,1,"matching SCONOSCIUTO"
"CNTRL12","CTRL",173,0.7209,1,"matching TU"
"CNTRL12","CTRL",174,0.737,1,"matching SCONOSCIUTO"
"CNTRL12","CTRL",175,0.8414,1,"non-matching TU"
"CNTRL12","CTRL",176,0.6728,1,"matching TU"
"CNTRL12","CTRL",177,0.7941,1,"matching TU"
"CNTRL12","CTRL",178,0.6994,1,"non-matching SCONOSCIUTO"
"CNTRL12","CTRL",179,0.8242,1,"matching TU"
"CNTRL12","CTRL",180,0.7215,1,"non-matching SCONOSCIUTO"
"CNTRL12","CTRL",181,0.6417,1,"non-matching SCONOSCIUTO"
"CNTRL12","CTRL",182,0.585,1,"non-matching SCONOSCIUTO"
"CNTRL12","CTRL",183,0.6897,1,"matching TU"
"CNTRL12","CTRL",184,0.7425,1,"matching SCONOSCIUTO"
"CNTRL12","CTRL",185,0.7207,1,"matching TU"
"CNTRL12","CTRL",186,0.6572,1,"non-matching SCONOSCIUTO"
"CNTRL12","CTRL",187,0.9427,1,"non-matching TU"
"CNTRL12","CTRL",188,0.6783,1,"matching SCONOSCIUTO"
"CNTRL12","CTRL",189,0.7398,1,"matching SCONOSCIUTO"
"CNTRL12","CTRL",190,0.9049,1,"non-matching TU"
"CNTRL12","CTRL",191,0.6525,1,"matching TU"
"CNTRL12","CTRL",192,0.6401,1,"matching SCONOSCIUTO"
"CNTRL12","CTRL",193,0.6728,1,"non-matching TU"
"CNTRL12","CTRL",194,1.1215,1,"non-matching SCONOSCIUTO"
"CNTRL12","CTRL",195,0.6383,1,"matching SCONOSCIUTO"
"CNTRL12","CTRL",196,1.0435,0,"matching SCONOSCIUTO"
"CNTRL12","CTRL",197,0.8197,1,"matching SCONOSCIUTO"
"CNTRL12","CTRL",198,0.6922,1,"non-matching SCONOSCIUTO"
"CNTRL12","CTRL",199,0.7225,1,"matching TU"
"CNTRL12","CTRL",200,0.674,1,"non-matching SCONOSCIUTO"
"CNTRL13","CTRL",1,0.6338,1,"non-matching SCONOSCIUTO"
"CNTRL13","CTRL",2,0.3594,1,"matching TU"
"CNTRL13","CTRL",3,0.6643,1,"matching SCONOSCIUTO"
"CNTRL13","CTRL",4,0.8868,1,"matching SCONOSCIUTO"
"CNTRL13","CTRL",5,0.9427,1,"non-matching TU"
"CNTRL13","CTRL",6,1.1348,0,"matching SCONOSCIUTO"
"CNTRL13","CTRL",7,1.1055,1,"matching SCONOSCIUTO"
"CNTRL13","CTRL",8,0.9323,1,"matching SCONOSCIUTO"
"CNTRL13","CTRL",9,0.5051,1,"matching TU"
"CNTRL13","CTRL",10,0.6861,0,"non-matching SCONOSCIUTO"
"CNTRL13","CTRL",11,0.8652,1,"matching SCONOSCIUTO"
"CNTRL13","CTRL",12,1.1036,1,"non-matching SCONOSCIUTO"
"CNTRL13","CTRL",13,0.9526,1,"matching SCONOSCIUTO"
"CNTRL13","CTRL",14,0.5291,1,"matching TU"
"CNTRL13","CTRL",15,0.8394,1,"non-matching TU"
